{"datasetJSONCreationDateTime":"2026-09-06T15:28:04","datasetJSONVersion":"1.1.0","fileOID":"GLPX1.dm","dbLastModifiedDateTime":"2026-09-06T00:00:00","originator":"CDISC with R course","sourceSystem":{"name":"R","version":"4.4.0"},"studyOID":"GLPX1","metaDataVersionOID":"MDV.GLPX1.SDTMIG.3.4","metaDataRef":"define.xml","itemGroupOID":"IG.DM","records":400,"name":"DM","label":"Demographics","columns":[{"itemOID":"IT.DM.STUDYID","name":"STUDYID","label":"Study Identifier","dataType":"string","length":5},{"itemOID":"IT.DM.DOMAIN","name":"DOMAIN","label":"Domain Abbreviation","dataType":"string","length":2},{"itemOID":"IT.DM.USUBJID","name":"USUBJID","label":"Unique Subject Identifier","dataType":"string","length":13},{"itemOID":"IT.DM.SUBJID","name":"SUBJID","label":"Subject Identifier for the Study","dataType":"string","length":7},{"itemOID":"IT.DM.RFSTDTC","name":"RFSTDTC","label":"Subject Reference Start Date/Time","dataType":"string","length":10},{"itemOID":"IT.DM.RFENDTC","name":"RFENDTC","label":"Subject Reference End Date/Time","dataType":"string","length":10},{"itemOID":"IT.DM.RFXSTDTC","name":"RFXSTDTC","label":"Date/Time of First Study Treatment","dataType":"string","length":10},{"itemOID":"IT.DM.RFXENDTC","name":"RFXENDTC","label":"Date/Time of Last Study Treatment","dataType":"string","length":10},{"itemOID":"IT.DM.RFICDTC","name":"RFICDTC","label":"Date/Time of Informed Consent","dataType":"string","length":1},{"itemOID":"IT.DM.RFPENDTC","name":"RFPENDTC","label":"Date/Time of End of Participation","dataType":"string","length":10},{"itemOID":"IT.DM.DTHDTC","name":"DTHDTC","label":"Date/Time of Death","dataType":"string","length":1},{"itemOID":"IT.DM.DTHFL","name":"DTHFL","label":"Subject Death Flag","dataType":"string","length":1},{"itemOID":"IT.DM.SITEID","name":"SITEID","label":"Study Site Identifier","dataType":"string","length":3},{"itemOID":"IT.DM.BRTHDTC","name":"BRTHDTC","label":"Date/Time of Birth","dataType":"string","length":10},{"itemOID":"IT.DM.AGE","name":"AGE","label":"Age","dataType":"string","length":2},{"itemOID":"IT.DM.AGEU","name":"AGEU","label":"Age Units","dataType":"string","length":5},{"itemOID":"IT.DM.SEX","name":"SEX","label":"Sex","dataType":"string","length":1},{"itemOID":"IT.DM.RACE","name":"RACE","label":"Race","dataType":"string","length":25},{"itemOID":"IT.DM.ETHNIC","name":"ETHNIC","label":"Ethnicity","dataType":"string","length":22},{"itemOID":"IT.DM.ARMCD","name":"ARMCD","label":"Planned Arm Code","dataType":"string","length":6},{"itemOID":"IT.DM.ARM","name":"ARM","label":"Description of Planned Arm","dataType":"string","length":10},{"itemOID":"IT.DM.ACTARMCD","name":"ACTARMCD","label":"Actual Arm Code","dataType":"string","length":6},{"itemOID":"IT.DM.ACTARM","name":"ACTARM","label":"Description of Actual Arm","dataType":"string","length":10},{"itemOID":"IT.DM.ARMNRS","name":"ARMNRS","label":"Reason Arm and/or Actual Arm is Null","dataType":"string","length":1},{"itemOID":"IT.DM.ACTARMUD","name":"ACTARMUD","label":"Description of Unplanned Actual Arm","dataType":"string","length":1},{"itemOID":"IT.DM.COUNTRY","name":"COUNTRY","label":"Country","dataType":"string","length":3}],"rows":[["GLPX1","DM","GLPX1-101-010","101-010","2024-03-28","2024-09-26","2024-03-28","2024-09-26",null,"2024-09-26",null,null,"101","1965-12-08","58","YEARS","M","WHITE","NOT HISPANIC OR LATINO","PBO","Placebo","PBO","Placebo",null,null,"DNK"],["GLPX1","DM","GLPX1-101-012","101-012","2024-03-06","2024-09-04","2024-03-06","2024-09-04",null,"2024-09-04",null,null,"101","1964-11-12","59","YEARS","M","ASIAN","NOT HISPANIC OR LATINO","PBO","Placebo","PBO","Placebo",null,null,"DEU"],["GLPX1","DM","GLPX1-101-026","101-026","2024-05-06","2024-11-04","2024-05-06","2024-11-04",null,"2024-11-04",null,null,"101","1959-02-16","65","YEARS","F","WHITE","NOT HISPANIC OR LATINO","PBO","Placebo","PBO","Placebo",null,null,"ESP"],["GLPX1","DM","GLPX1-101-027","101-027","2024-04-14","2024-10-13","2024-04-14","2024-10-13",null,"2024-10-13",null,null,"101","1971-12-12","52","YEARS","M","WHITE","NOT HISPANIC OR LATINO","PBO","Placebo","PBO","Placebo",null,null,"DEU"],["GLPX1","DM","GLPX1-101-037","101-037","2024-04-19","2024-10-18","2024-04-19","2024-10-18",null,"2024-10-18",null,null,"101","1973-05-20","50","YEARS","F","WHITE","NOT HISPANIC OR LATINO","PBO","Placebo","PBO","Placebo",null,null,"DEU"],["GLPX1","DM","GLPX1-101-045","101-045","2024-03-14","2024-09-12","2024-03-14","2024-09-12",null,"2024-09-12",null,null,"101","1973-12-21","50","YEARS","F","OTHER","NOT HISPANIC OR LATINO","PBO","Placebo","PBO","Placebo",null,null,"POL"],["GLPX1","DM","GLPX1-101-052","101-052","2024-04-10","2024-10-09","2024-04-10","2024-10-09",null,"2024-10-09",null,null,"101","1965-02-10","59","YEARS","M","WHITE","NOT HISPANIC OR LATINO","GLPX10","GLPX 10 mg","GLPX10","GLPX 10 mg",null,null,"POL"],["GLPX1","DM","GLPX1-101-055","101-055","2024-02-09","2024-08-09","2024-02-09","2024-08-09",null,"2024-08-09",null,null,"101","1960-12-05","63","YEARS","F","WHITE","NOT HISPANIC OR LATINO","PBO","Placebo","PBO","Placebo",null,null,"GBR"],["GLPX1","DM","GLPX1-101-061","101-061","2024-02-03","2024-08-03","2024-02-03","2024-08-03",null,"2024-08-03",null,null,"101","1953-07-29","70","YEARS","M","WHITE","NOT HISPANIC OR LATINO","PBO","Placebo","PBO","Placebo",null,null,"ESP"],["GLPX1","DM","GLPX1-101-071","101-071","2024-06-01","2024-11-30","2024-06-01","2024-11-30",null,"2024-11-30",null,null,"101","1962-02-16","62","YEARS","F","WHITE","NOT HISPANIC OR LATINO","PBO","Placebo","PBO","Placebo",null,null,"DEU"],["GLPX1","DM","GLPX1-101-104","101-104","2024-05-24","2024-11-22","2024-05-24","2024-11-22",null,"2024-11-22",null,null,"101","1951-11-14","72","YEARS","F","WHITE","NOT HISPANIC OR LATINO","GLPX10","GLPX 10 mg","GLPX10","GLPX 10 mg",null,null,"ESP"],["GLPX1","DM","GLPX1-101-139","101-139","2024-07-11","2024-09-20","2024-07-11","2024-09-20",null,"2024-09-20",null,null,"101","1959-08-20","64","YEARS","F","WHITE","NOT HISPANIC OR LATINO","GLPX10","GLPX 10 mg","GLPX10","GLPX 10 mg",null,null,"GBR"],["GLPX1","DM","GLPX1-101-147","101-147","2024-03-09","2024-09-07","2024-03-09","2024-09-07",null,"2024-09-07",null,null,"101","1969-07-25","54","YEARS","F","WHITE","NOT HISPANIC OR LATINO","GLPX10","GLPX 10 mg","GLPX10","GLPX 10 mg",null,null,"GBR"],["GLPX1","DM","GLPX1-101-176","101-176","2024-05-27","2024-11-25","2024-05-27","2024-11-25",null,"2024-11-25",null,null,"101","1962-10-26","61","YEARS","F","WHITE","NOT HISPANIC OR LATINO","PBO","Placebo","PBO","Placebo",null,null,"DNK"],["GLPX1","DM","GLPX1-101-194","101-194","2024-04-29","2024-10-28","2024-04-29","2024-10-28",null,"2024-10-28",null,null,"101","1978-04-01","46","YEARS","M","WHITE","NOT HISPANIC OR LATINO","GLPX10","GLPX 10 mg","GLPX10","GLPX 10 mg",null,null,"POL"],["GLPX1","DM","GLPX1-101-275","101-275","2024-07-01","2024-12-30","2024-07-01","2024-12-30",null,"2024-12-30",null,null,"101","1967-12-18","56","YEARS","M","WHITE","HISPANIC OR LATINO","PBO","Placebo","PBO","Placebo",null,null,"ESP"],["GLPX1","DM","GLPX1-101-280","101-280","2024-05-10","2024-11-08","2024-05-10","2024-11-08",null,"2024-11-08",null,null,"101","1974-12-14","49","YEARS","F","ASIAN","NOT HISPANIC OR LATINO","GLPX10","GLPX 10 mg","GLPX10","GLPX 10 mg",null,null,"DNK"],["GLPX1","DM","GLPX1-101-292","101-292","2024-07-06","2025-01-04","2024-07-06","2025-01-04",null,"2025-01-04",null,null,"101","1978-07-18","45","YEARS","M","WHITE","NOT HISPANIC OR LATINO","GLPX10","GLPX 10 mg","GLPX10","GLPX 10 mg",null,null,"ESP"],["GLPX1","DM","GLPX1-101-294","101-294","2024-01-31","2024-07-31","2024-01-31","2024-07-31",null,"2024-07-31",null,null,"101","1959-04-22","64","YEARS","F","OTHER","NOT HISPANIC OR LATINO","GLPX10","GLPX 10 mg","GLPX10","GLPX 10 mg",null,null,"POL"],["GLPX1","DM","GLPX1-101-308","101-308","2024-06-27","2024-12-26","2024-06-27","2024-12-26",null,"2024-12-26",null,null,"101","1970-05-03","54","YEARS","M","WHITE","NOT HISPANIC OR LATINO","GLPX10","GLPX 10 mg","GLPX10","GLPX 10 mg",null,null,"ESP"],["GLPX1","DM","GLPX1-101-309","101-309","2024-04-05","2024-05-21","2024-04-05","2024-05-21",null,"2024-05-21",null,null,"101","1970-10-10","53","YEARS","M","WHITE","NOT HISPANIC OR LATINO","GLPX10","GLPX 10 mg","GLPX10","GLPX 10 mg",null,null,"DEU"],["GLPX1","DM","GLPX1-101-335","101-335","2024-02-27","2024-08-27","2024-02-27","2024-08-27",null,"2024-08-27",null,null,"101","1970-03-23","53","YEARS","F","OTHER","NOT HISPANIC OR LATINO","PBO","Placebo","PBO","Placebo",null,null,"DEU"],["GLPX1","DM","GLPX1-101-336","101-336","2024-03-29","2024-09-27","2024-03-29","2024-09-27",null,"2024-09-27",null,null,"101","1972-04-27","51","YEARS","M","WHITE","NOT HISPANIC OR LATINO","GLPX10","GLPX 10 mg","GLPX10","GLPX 10 mg",null,null,"DNK"],["GLPX1","DM","GLPX1-101-369","101-369","2024-05-20","2024-11-18","2024-05-20","2024-11-18",null,"2024-11-18",null,null,"101","1970-02-26","54","YEARS","F","WHITE","NOT HISPANIC OR LATINO","PBO","Placebo","PBO","Placebo",null,null,"POL"],["GLPX1","DM","GLPX1-101-400","101-400","2024-03-29","2024-08-01","2024-03-29","2024-08-01",null,"2024-08-01",null,null,"101","1969-01-29","55","YEARS","M","ASIAN","NOT HISPANIC OR LATINO","GLPX10","GLPX 10 mg","GLPX10","GLPX 10 mg",null,null,"DEU"],["GLPX1","DM","GLPX1-102-005","102-005","2024-05-27","2024-11-25","2024-05-27","2024-11-25",null,"2024-11-25",null,null,"102","1967-04",null,null,"F","WHITE","NOT HISPANIC OR LATINO","PBO","Placebo","PBO","Placebo",null,null,"POL"],["GLPX1","DM","GLPX1-102-007","102-007","2024-03-02","2024-08-31","2024-03-02","2024-08-31",null,"2024-08-31",null,null,"102","1967-12-08","56","YEARS","M","ASIAN","NOT HISPANIC OR LATINO","GLPX10","GLPX 10 mg","GLPX10","GLPX 10 mg",null,null,"DEU"],["GLPX1","DM","GLPX1-102-024","102-024","2024-03-18","2024-09-16","2024-03-18","2024-09-16",null,"2024-09-16",null,null,"102","1962-01-23","62","YEARS","M","WHITE","NOT HISPANIC OR LATINO","PBO","Placebo","PBO","Placebo",null,null,"POL"],["GLPX1","DM","GLPX1-102-025","102-025","2024-04-25","2024-10-24","2024-04-25","2024-10-24",null,"2024-10-24",null,null,"102","1967-03-30","57","YEARS","F","WHITE","NOT HISPANIC OR LATINO","GLPX10","GLPX 10 mg","GLPX10","GLPX 10 mg",null,null,"POL"],["GLPX1","DM","GLPX1-102-029","102-029","2024-04-10","2024-10-09","2024-04-10","2024-10-09",null,"2024-10-09",null,null,"102","1962-05-16","61","YEARS","M","WHITE","NOT HISPANIC OR LATINO","GLPX10","GLPX 10 mg","GLPX10","GLPX 10 mg",null,null,"DEU"],["GLPX1","DM","GLPX1-102-040","102-040","2024-05-07","2024-11-05","2024-05-07","2024-11-05",null,"2024-11-05",null,null,"102","1969-05-14","54","YEARS","F","WHITE","NOT HISPANIC OR LATINO","GLPX10","GLPX 10 mg","GLPX10","GLPX 10 mg",null,null,"DNK"],["GLPX1","DM","GLPX1-102-072","102-072","2024-06-02","2024-12-01","2024-06-02","2024-12-01",null,"2024-12-01",null,null,"102","1964-12-16","59","YEARS","F","WHITE","NOT HISPANIC OR LATINO","PBO","Placebo","PBO","Placebo",null,null,"DEU"],["GLPX1","DM","GLPX1-102-074","102-074","2024-05-27","2024-11-25","2024-05-27","2024-11-25",null,"2024-11-25",null,null,"102","1956-09-12","67","YEARS","M","WHITE","NOT HISPANIC OR LATINO","PBO","Placebo","PBO","Placebo",null,null,"GBR"],["GLPX1","DM","GLPX1-102-075","102-075","2024-04-16","2024-10-15","2024-04-16","2024-10-15",null,"2024-10-15",null,null,"102","1949-01-10","75","YEARS","F","WHITE","NOT HISPANIC OR LATINO","PBO","Placebo","PBO","Placebo",null,null,"DNK"],["GLPX1","DM","GLPX1-102-077","102-077","2024-05-04","2024-11-02","2024-05-04","2024-11-02",null,"2024-11-02",null,null,"102","1972-06-13","51","YEARS","M","BLACK OR AFRICAN AMERICAN","NOT HISPANIC OR LATINO","GLPX10","GLPX 10 mg","GLPX10","GLPX 10 mg",null,null,"GBR"],["GLPX1","DM","GLPX1-102-099","102-099","2024-04-21","2024-10-20","2024-04-21","2024-10-20",null,"2024-10-20",null,null,"102","1962-12-11","61","YEARS","F","WHITE","NOT HISPANIC OR LATINO","GLPX10","GLPX 10 mg","GLPX10","GLPX 10 mg",null,null,"DEU"],["GLPX1","DM","GLPX1-102-105","102-105","2024-06-28","2024-12-13","2024-06-28","2024-12-13",null,"2024-12-13",null,null,"102","1954-03-27","70","YEARS","M","WHITE","HISPANIC OR LATINO","PBO","Placebo","PBO","Placebo",null,null,"DNK"],["GLPX1","DM","GLPX1-102-120","102-120","2024-02-14","2024-08-14","2024-02-14","2024-08-14",null,"2024-08-14",null,null,"102","1964-05-26","59","YEARS","M","ASIAN","NOT HISPANIC OR LATINO","PBO","Placebo","PBO","Placebo",null,null,"DEU"],["GLPX1","DM","GLPX1-102-132","102-132","2024-06-12","2024-12-11","2024-06-12","2024-12-11",null,"2024-12-11",null,null,"102","1946-01-12","78","YEARS","F","BLACK OR AFRICAN AMERICAN","NOT HISPANIC OR LATINO","GLPX10","GLPX 10 mg","GLPX10","GLPX 10 mg",null,null,"DEU"],["GLPX1","DM","GLPX1-102-133","102-133","2024-06-19","2024-12-18","2024-06-19","2024-12-18",null,"2024-12-18",null,null,"102","1941-03-19","83","YEARS","M","WHITE","NOT HISPANIC OR LATINO","GLPX10","GLPX 10 mg","GLPX10","GLPX 10 mg",null,null,"POL"],["GLPX1","DM","GLPX1-102-145","102-145","2024-06-06","2024-12-05","2024-06-06","2024-12-05",null,"2024-12-05",null,null,"102","1959-12-16","64","YEARS","M","WHITE","HISPANIC OR LATINO","GLPX10","GLPX 10 mg","GLPX10","GLPX 10 mg",null,null,"GBR"],["GLPX1","DM","GLPX1-102-153","102-153","2024-04-01","2024-09-30","2024-04-01","2024-09-30",null,"2024-09-30",null,null,"102","1962-09-12","61","YEARS","M","WHITE","NOT HISPANIC OR LATINO","GLPX10","GLPX 10 mg","GLPX10","GLPX 10 mg",null,null,"ESP"],["GLPX1","DM","GLPX1-102-167","102-167","2024-04-27","2024-10-26","2024-04-27","2024-10-26",null,"2024-10-26",null,null,"102","1954-05-23","69","YEARS","F","WHITE","NOT HISPANIC OR LATINO","GLPX10","GLPX 10 mg","GLPX10","GLPX 10 mg",null,null,"GBR"],["GLPX1","DM","GLPX1-102-188","102-188","2024-06-13","2024-12-12","2024-06-13","2024-12-12",null,"2024-12-12",null,null,"102","1963-04-23","61","YEARS","M","WHITE","NOT HISPANIC OR LATINO","GLPX10","GLPX 10 mg","GLPX10","GLPX 10 mg",null,null,"DEU"],["GLPX1","DM","GLPX1-102-207","102-207","2024-02-27","2024-08-27","2024-02-27","2024-08-27",null,"2024-08-27",null,null,"102","1953-02-15","71","YEARS","M","WHITE","NOT HISPANIC OR LATINO","PBO","Placebo","PBO","Placebo",null,null,"GBR"],["GLPX1","DM","GLPX1-102-223","102-223","2024-07-11","2025-01-09","2024-07-11","2025-01-09",null,"2025-01-09",null,null,"102","1978-11-09","45","YEARS","M","WHITE","NOT HISPANIC OR LATINO","GLPX10","GLPX 10 mg","GLPX10","GLPX 10 mg",null,null,"GBR"],["GLPX1","DM","GLPX1-102-229","102-229","2024-04-03","2024-10-02","2024-04-03","2024-10-02",null,"2024-10-02",null,null,"102","1973-09-11","50","YEARS","M","WHITE","NOT HISPANIC OR LATINO","PBO","Placebo","PBO","Placebo",null,null,"ESP"],["GLPX1","DM","GLPX1-102-248","102-248","2024-07-11","2025-01-09","2024-07-11","2025-01-09",null,"2025-01-09",null,null,"102","1961-11-05","62","YEARS","M","WHITE","NOT HISPANIC OR LATINO","PBO","Placebo","PBO","Placebo",null,null,"ESP"],["GLPX1","DM","GLPX1-102-254","102-254","2024-07-09","2025-01-07","2024-07-09","2025-01-07",null,"2025-01-07",null,null,"102","1975-08-20","48","YEARS","M","ASIAN","NOT HISPANIC OR LATINO","GLPX10","GLPX 10 mg","GLPX10","GLPX 10 mg",null,null,"POL"],["GLPX1","DM","GLPX1-102-277","102-277","2024-02-14","2024-08-14","2024-02-14","2024-08-14",null,"2024-08-14",null,null,"102","1968-02-25","55","YEARS","M","WHITE","HISPANIC OR LATINO","GLPX10","GLPX 10 mg","GLPX10","GLPX 10 mg",null,null,"ESP"],["GLPX1","DM","GLPX1-102-284","102-284","2024-06-12","2024-12-11","2024-06-12","2024-12-11",null,"2024-12-11",null,null,"102","1964-05-05","60","YEARS","F","WHITE","NOT HISPANIC OR LATINO","PBO","Placebo","PBO","Placebo",null,null,"DEU"],["GLPX1","DM","GLPX1-102-288","102-288","2024-02-22","2024-08-22","2024-02-22","2024-08-22",null,"2024-08-22",null,null,"102","1967-02-25","56","YEARS","M","WHITE","NOT HISPANIC OR LATINO","PBO","Placebo","PBO","Placebo",null,null,"DNK"],["GLPX1","DM","GLPX1-102-322","102-322","2024-04-03","2024-10-02","2024-04-03","2024-10-02",null,"2024-10-02",null,null,"102","1962-11-01","61","YEARS","M","ASIAN","NOT HISPANIC OR LATINO","GLPX10","GLPX 10 mg","GLPX10","GLPX 10 mg",null,null,"DEU"],["GLPX1","DM","GLPX1-102-329","102-329","2024-03-19","2024-09-17","2024-03-19","2024-09-17",null,"2024-09-17",null,null,"102","1955-09-14","68","YEARS","F","WHITE","NOT HISPANIC OR LATINO","GLPX10","GLPX 10 mg","GLPX10","GLPX 10 mg",null,null,"DNK"],["GLPX1","DM","GLPX1-102-331","102-331","2024-02-21","2024-08-21","2024-02-21","2024-08-21",null,"2024-08-21",null,null,"102","1985-12-31","38","YEARS","M","WHITE","NOT HISPANIC OR LATINO","GLPX10","GLPX 10 mg","GLPX10","GLPX 10 mg",null,null,"POL"],["GLPX1","DM","GLPX1-102-338","102-338","2024-02-01","2024-08-01","2024-02-01","2024-08-01",null,"2024-08-01",null,null,"102","1969-03-02","54","YEARS","F","WHITE","NOT HISPANIC OR LATINO","GLPX10","GLPX 10 mg","GLPX10","GLPX 10 mg",null,null,"DEU"],["GLPX1","DM","GLPX1-102-360","102-360","2024-04-04","2024-10-03","2024-04-04","2024-10-03",null,"2024-10-03",null,null,"102","1957-05-04","66","YEARS","M","WHITE","NOT HISPANIC OR LATINO","PBO","Placebo","PBO","Placebo",null,null,"DNK"],["GLPX1","DM","GLPX1-102-376","102-376","2024-06-01","2024-11-30","2024-06-01","2024-11-30",null,"2024-11-30",null,null,"102","1970-12-15","53","YEARS","F","BLACK OR AFRICAN AMERICAN","NOT HISPANIC OR LATINO","PBO","Placebo","PBO","Placebo",null,null,"DEU"],["GLPX1","DM","GLPX1-102-378","102-378","2024-05-11","2024-11-09","2024-05-11","2024-11-09",null,"2024-11-09",null,null,"102","1963-10-30","60","YEARS","M","WHITE","NOT HISPANIC OR LATINO","PBO","Placebo","PBO","Placebo",null,null,"DEU"],["GLPX1","DM","GLPX1-102-382","102-382","2024-01-27","2024-07-27","2024-01-27","2024-07-27",null,"2024-07-27",null,null,"102","1968-11-29","55","YEARS","M","WHITE","NOT HISPANIC OR LATINO","PBO","Placebo","PBO","Placebo",null,null,"DEU"],["GLPX1","DM","GLPX1-102-383","102-383","2024-05-26","2024-11-24","2024-05-26","2024-11-24",null,"2024-11-24",null,null,"102","1973-11-04","50","YEARS","F","WHITE","NOT HISPANIC OR LATINO","PBO","Placebo","PBO","Placebo",null,null,"DEU"],["GLPX1","DM","GLPX1-102-384","102-384","2024-01-21","2024-07-21","2024-01-21","2024-07-21",null,"2024-07-21",null,null,"102","1964-06-12","59","YEARS","F","WHITE","NOT HISPANIC OR LATINO","GLPX10","GLPX 10 mg","GLPX10","GLPX 10 mg",null,null,"GBR"],["GLPX1","DM","GLPX1-102-388","102-388","2024-06-07","2024-12-06","2024-06-07","2024-12-06",null,"2024-12-06",null,null,"102","1957-04-18","67","YEARS","M","BLACK OR AFRICAN AMERICAN","HISPANIC OR LATINO","GLPX10","GLPX 10 mg","GLPX10","GLPX 10 mg",null,null,"GBR"],["GLPX1","DM","GLPX1-102-389","102-389","2024-03-26","2024-09-24","2024-03-26","2024-09-24",null,"2024-09-24",null,null,"102","1973-05-16","50","YEARS","F","WHITE","NOT HISPANIC OR LATINO","GLPX10","GLPX 10 mg","GLPX10","GLPX 10 mg",null,null,"POL"],["GLPX1","DM","GLPX1-103-006","103-006","2024-07-03","2025-01-01","2024-07-03","2025-01-01",null,"2025-01-01",null,null,"103","1972-07-06","51","YEARS","M","BLACK OR AFRICAN AMERICAN","HISPANIC OR LATINO","PBO","Placebo","PBO","Placebo",null,null,"ESP"],["GLPX1","DM","GLPX1-103-021","103-021","2024-05-02","2024-10-31","2024-05-02","2024-10-31",null,"2024-10-31",null,null,"103","1968-02-13","56","YEARS","M","WHITE","NOT HISPANIC OR LATINO","PBO","Placebo","PBO","Placebo",null,null,"GBR"],["GLPX1","DM","GLPX1-103-028","103-028","2024-03-02","2024-08-31","2024-03-02","2024-08-31",null,"2024-08-31",null,null,"103","1972-02-19","52","YEARS","M","WHITE","NOT HISPANIC OR LATINO","PBO","Placebo","PBO","Placebo",null,null,"POL"],["GLPX1","DM","GLPX1-103-030","103-030","2024-03-11","2024-09-09","2024-03-11","2024-09-09",null,"2024-09-09",null,null,"103","1953-02-26","71","YEARS","M","ASIAN","NOT HISPANIC OR LATINO","PBO","Placebo","PBO","Placebo",null,null,"GBR"],["GLPX1","DM","GLPX1-103-054","103-054","2024-02-20","2024-07-01","2024-02-20","2024-07-01",null,"2024-07-01",null,null,"103","1959-09-23","64","YEARS","F","BLACK OR AFRICAN AMERICAN","NOT HISPANIC OR LATINO","PBO","Placebo","PBO","Placebo",null,null,"DNK"],["GLPX1","DM","GLPX1-103-056","103-056","2024-07-06","2025-01-04","2024-07-06","2025-01-04",null,"2025-01-04",null,null,"103","1964-06-23","60","YEARS","M","WHITE","NOT HISPANIC OR LATINO","GLPX10","GLPX 10 mg","GLPX10","GLPX 10 mg",null,null,"DEU"],["GLPX1","DM","GLPX1-103-092","103-092","2024-04-01","2024-09-30","2024-04-01","2024-09-30",null,"2024-09-30",null,null,"103","1969-12-11","54","YEARS","F","WHITE","NOT HISPANIC OR LATINO","PBO","Placebo","PBO","Placebo",null,null,"DEU"],["GLPX1","DM","GLPX1-103-096","103-096","2024-07-01","2024-12-30","2024-07-01","2024-12-30",null,"2024-12-30",null,null,"103","1955-10-13","68","YEARS","M","WHITE","NOT HISPANIC OR LATINO","GLPX10","GLPX 10 mg","GLPX10","GLPX 10 mg",null,null,"DNK"],["GLPX1","DM","GLPX1-103-116","103-116","2024-05-03","2024-11-01","2024-05-03","2024-11-01",null,"2024-11-01",null,null,"103","1975-11-16","48","YEARS","F","WHITE","NOT HISPANIC OR LATINO","GLPX10","GLPX 10 mg","GLPX10","GLPX 10 mg",null,null,"DNK"],["GLPX1","DM","GLPX1-103-125","103-125","2024-02-21","2024-08-21","2024-02-21","2024-08-21",null,"2024-08-21",null,null,"103","1966-11-02","57","YEARS","F","WHITE","NOT HISPANIC OR LATINO","PBO","Placebo","PBO","Placebo",null,null,"DEU"],["GLPX1","DM","GLPX1-103-141","103-141","2024-04-02","2024-10-01","2024-04-02","2024-10-01",null,"2024-10-01",null,null,"103",null,null,null,"F","WHITE","NOT HISPANIC OR LATINO","GLPX10","GLPX 10 mg","GLPX10","GLPX 10 mg",null,null,"ESP"],["GLPX1","DM","GLPX1-103-150","103-150","2024-02-07","2024-08-07","2024-02-07","2024-08-07",null,"2024-08-07",null,null,"103","1967-09-30","56","YEARS","M","WHITE","HISPANIC OR LATINO","PBO","Placebo","PBO","Placebo",null,null,"DNK"],["GLPX1","DM","GLPX1-103-177","103-177","2024-03-17","2024-09-15","2024-03-17","2024-09-15",null,"2024-09-15",null,null,"103","1963-08-10","60","YEARS","M","WHITE","NOT HISPANIC OR LATINO","PBO","Placebo","PBO","Placebo",null,null,"POL"],["GLPX1","DM","GLPX1-103-182","103-182","2024-05-07","2024-11-05","2024-05-07","2024-11-05",null,"2024-11-05",null,null,"103","1975-11-28","48","YEARS","F","WHITE","NOT HISPANIC OR LATINO","PBO","Placebo","PBO","Placebo",null,null,"ESP"],["GLPX1","DM","GLPX1-103-192","103-192","2024-04-11","2024-10-10","2024-04-11","2024-10-10",null,"2024-10-10",null,null,"103","1980-05-04","43","YEARS","M","WHITE","NOT HISPANIC OR LATINO","PBO","Placebo","PBO","Placebo",null,null,"DEU"],["GLPX1","DM","GLPX1-103-199","103-199","2024-07-04","2024-09-24","2024-07-04","2024-09-24",null,"2024-09-24",null,null,"103","1965-10-03","58","YEARS","M","WHITE","NOT HISPANIC OR LATINO","PBO","Placebo","PBO","Placebo",null,null,"GBR"],["GLPX1","DM","GLPX1-103-211","103-211","2024-03-13","2024-09-11","2024-03-13","2024-09-11",null,"2024-09-11",null,null,"103","1963-08-13","60","YEARS","F","WHITE","NOT HISPANIC OR LATINO","PBO","Placebo","PBO","Placebo",null,null,"DEU"],["GLPX1","DM","GLPX1-103-226","103-226","2024-02-28","2024-08-28","2024-02-28","2024-08-28",null,"2024-08-28",null,null,"103","1954-03-20","69","YEARS","F","WHITE","HISPANIC OR LATINO","GLPX10","GLPX 10 mg","GLPX10","GLPX 10 mg",null,null,"ESP"],["GLPX1","DM","GLPX1-103-242","103-242","2024-02-20","2024-08-20","2024-02-20","2024-08-20",null,"2024-08-20",null,null,"103","1956-11-03","67","YEARS","M","WHITE","NOT HISPANIC OR LATINO","GLPX10","GLPX 10 mg","GLPX10","GLPX 10 mg",null,null,"ESP"],["GLPX1","DM","GLPX1-103-244","103-244","2024-03-23","2024-09-21","2024-03-23","2024-09-21",null,"2024-09-21",null,null,"103","1972-11-04","51","YEARS","M","WHITE","NOT HISPANIC OR LATINO","PBO","Placebo","PBO","Placebo",null,null,"DNK"],["GLPX1","DM","GLPX1-103-270","103-270","2024-03-20","2024-07-09","2024-03-20","2024-07-09",null,"2024-07-09",null,null,"103","1975-09-11","48","YEARS","M","WHITE","NOT HISPANIC OR LATINO","PBO","Placebo","PBO","Placebo",null,null,"DEU"],["GLPX1","DM","GLPX1-103-290","103-290","2024-04-02","2024-10-01","2024-04-02","2024-10-01",null,"2024-10-01",null,null,"103","1965-10-06","58","YEARS","M","WHITE","NOT HISPANIC OR LATINO","GLPX10","GLPX 10 mg","GLPX10","GLPX 10 mg",null,null,"DNK"],["GLPX1","DM","GLPX1-103-317","103-317","2024-02-26","2024-08-26","2024-02-26","2024-08-26",null,"2024-08-26",null,null,"103","1961-09-11","62","YEARS","M","WHITE","NOT HISPANIC OR LATINO","PBO","Placebo","PBO","Placebo",null,null,"DEU"],["GLPX1","DM","GLPX1-103-330","103-330","2024-05-31","2024-11-29","2024-05-31","2024-11-29",null,"2024-11-29",null,null,"103","1970-11-08","53","YEARS","M","ASIAN","NOT HISPANIC OR LATINO","PBO","Placebo","PBO","Placebo",null,null,"GBR"],["GLPX1","DM","GLPX1-103-340","103-340","2024-05-25","2024-11-23","2024-05-25","2024-11-23",null,"2024-11-23",null,null,"103","1961-06-06","62","YEARS","M","WHITE","NOT HISPANIC OR LATINO","PBO","Placebo","PBO","Placebo",null,null,"GBR"],["GLPX1","DM","GLPX1-103-371","103-371","2024-02-10","2024-08-10","2024-02-10","2024-08-10",null,"2024-08-10",null,null,"103","1960-10-31","63","YEARS","M","WHITE","NOT HISPANIC OR LATINO","GLPX10","GLPX 10 mg","GLPX10","GLPX 10 mg",null,null,"DEU"],["GLPX1","DM","GLPX1-103-375","103-375","2024-04-21","2024-06-26","2024-04-21","2024-06-26",null,"2024-06-26",null,null,"103","1975-09-04","48","YEARS","M","WHITE","NOT HISPANIC OR LATINO","PBO","Placebo","PBO","Placebo",null,null,"DNK"],["GLPX1","DM","GLPX1-103-385","103-385","2024-02-09","2024-08-09","2024-02-09","2024-08-09",null,"2024-08-09",null,null,"103","1968-12-16","55","YEARS","F","ASIAN","NOT HISPANIC OR LATINO","PBO","Placebo","PBO","Placebo",null,null,"GBR"],["GLPX1","DM","GLPX1-103-386","103-386","2024-03-17","2024-09-15","2024-03-17","2024-09-15",null,"2024-09-15",null,null,"103","1962-07-14","61","YEARS","M","WHITE","NOT HISPANIC OR LATINO","GLPX10","GLPX 10 mg","GLPX10","GLPX 10 mg",null,null,"DNK"],["GLPX1","DM","GLPX1-103-397","103-397","2024-06-19","2024-12-18","2024-06-19","2024-12-18",null,"2024-12-18",null,null,"103","1961-03-17","63","YEARS","M","WHITE","NOT HISPANIC OR LATINO","PBO","Placebo","PBO","Placebo",null,null,"DEU"],["GLPX1","DM","GLPX1-103-399","103-399","2024-02-01","2024-08-01","2024-02-01","2024-08-01",null,"2024-08-01",null,null,"103","1971-04-02","52","YEARS","M","WHITE","NOT HISPANIC OR LATINO","GLPX10","GLPX 10 mg","GLPX10","GLPX 10 mg",null,null,"DEU"],["GLPX1","DM","GLPX1-104-014","104-014","2024-04-19","2024-10-18","2024-04-19","2024-10-18",null,"2024-10-18",null,null,"104","1949-05-15","74","YEARS","F","ASIAN","NOT HISPANIC OR LATINO","PBO","Placebo","PBO","Placebo",null,null,"GBR"],["GLPX1","DM","GLPX1-104-035","104-035","2024-03-23","2024-09-21","2024-03-23","2024-09-21",null,"2024-09-21",null,null,"104","1965-11-26","58","YEARS","M","WHITE","NOT HISPANIC OR LATINO","GLPX10","GLPX 10 mg","GLPX10","GLPX 10 mg",null,null,"DNK"],["GLPX1","DM","GLPX1-104-036","104-036","2024-03-01","2024-08-30","2024-03-01","2024-08-30",null,"2024-08-30",null,null,"104","1961-10-12","62","YEARS","F","WHITE","NOT HISPANIC OR LATINO","GLPX10","GLPX 10 mg","GLPX10","GLPX 10 mg",null,null,"DEU"],["GLPX1","DM","GLPX1-104-051","104-051","2024-06-02","2024-12-01","2024-06-02","2024-12-01",null,"2024-12-01",null,null,"104","1969-01-30","55","YEARS","F","WHITE","NOT HISPANIC OR LATINO","PBO","Placebo","PBO","Placebo",null,null,"POL"],["GLPX1","DM","GLPX1-104-063","104-063","2024-07-07","2025-01-05","2024-07-07","2025-01-05",null,"2025-01-05",null,null,"104","1953-06-10","71","YEARS","F","WHITE","NOT HISPANIC OR LATINO","PBO","Placebo","PBO","Placebo",null,null,"POL"],["GLPX1","DM","GLPX1-104-068","104-068","2024-04-15","2024-09-20","2024-04-15","2024-09-20",null,"2024-09-20",null,null,"104","1969-08-15","54","YEARS","M","WHITE","NOT HISPANIC OR LATINO","PBO","Placebo","PBO","Placebo",null,null,"DNK"],["GLPX1","DM","GLPX1-104-095","104-095","2024-04-18","2024-10-17","2024-04-18","2024-10-17",null,"2024-10-17",null,null,"104","1984-12-13","39","YEARS","F","BLACK OR AFRICAN AMERICAN","NOT HISPANIC OR LATINO","PBO","Placebo","PBO","Placebo",null,null,"DNK"],["GLPX1","DM","GLPX1-104-098","104-098","2024-02-02","2024-08-02","2024-02-02","2024-08-02",null,"2024-08-02",null,null,"104","1984-08-31","39","YEARS","F","WHITE","NOT HISPANIC OR LATINO","GLPX10","GLPX 10 mg","GLPX10","GLPX 10 mg",null,null,"GBR"],["GLPX1","DM","GLPX1-104-102","104-102","2024-03-22","2024-09-20","2024-03-22","2024-09-20",null,"2024-09-20",null,null,"104","1979-05-14","44","YEARS","F","WHITE","NOT HISPANIC OR LATINO","PBO","Placebo","PBO","Placebo",null,null,"DEU"],["GLPX1","DM","GLPX1-104-103","104-103","2024-06-15","2024-12-14","2024-06-15","2024-12-14",null,"2024-12-14",null,null,"104","1968-08-25","55","YEARS","F","WHITE","NOT HISPANIC OR LATINO","PBO","Placebo","PBO","Placebo",null,null,"ESP"],["GLPX1","DM","GLPX1-104-106","104-106","2024-02-23","2024-06-27","2024-02-23","2024-06-27",null,"2024-06-27",null,null,"104","1967-12-01","56","YEARS","M","WHITE","NOT HISPANIC OR LATINO","GLPX10","GLPX 10 mg","GLPX10","GLPX 10 mg",null,null,"DEU"],["GLPX1","DM","GLPX1-104-123","104-123","2024-04-29","2024-10-28","2024-04-29","2024-10-28",null,"2024-10-28",null,null,"104","1963-07-05","60","YEARS","F","WHITE","NOT HISPANIC OR LATINO","PBO","Placebo","PBO","Placebo",null,null,"ESP"],["GLPX1","DM","GLPX1-104-127","104-127","2024-01-26","2024-07-26","2024-01-26","2024-07-26",null,"2024-07-26",null,null,"104","1952-10-15","71","YEARS","F","WHITE","NOT HISPANIC OR LATINO","GLPX10","GLPX 10 mg","GLPX10","GLPX 10 mg",null,null,"ESP"],["GLPX1","DM","GLPX1-104-129","104-129","2024-05-13","2024-11-11","2024-05-13","2024-11-11",null,"2024-11-11",null,null,"104","1951-04-01","73","YEARS","M","ASIAN","NOT HISPANIC OR LATINO","GLPX10","GLPX 10 mg","GLPX10","GLPX 10 mg",null,null,"GBR"],["GLPX1","DM","GLPX1-104-152","104-152","2024-07-11","2025-01-09","2024-07-11","2025-01-09",null,"2025-01-09",null,null,"104","1960-02-12","64","YEARS","F","WHITE","NOT HISPANIC OR LATINO","GLPX10","GLPX 10 mg","GLPX10","GLPX 10 mg",null,null,"DEU"],["GLPX1","DM","GLPX1-104-168","104-168","2024-01-26","2024-07-26","2024-01-26","2024-07-26",null,"2024-07-26",null,null,"104","1971-02-19","52","YEARS","F","WHITE","NOT HISPANIC OR LATINO","GLPX10","GLPX 10 mg","GLPX10","GLPX 10 mg",null,null,"POL"],["GLPX1","DM","GLPX1-104-173","104-173","2024-03-18","2024-09-16","2024-03-18","2024-09-16",null,"2024-09-16",null,null,"104","1970-09-15","53","YEARS","M","ASIAN","NOT HISPANIC OR LATINO","PBO","Placebo","PBO","Placebo",null,null,"GBR"],["GLPX1","DM","GLPX1-104-184","104-184","2024-03-21","2024-09-19","2024-03-21","2024-09-19",null,"2024-09-19",null,null,"104","1976-08-30","47","YEARS","M","WHITE","NOT HISPANIC OR LATINO","PBO","Placebo","PBO","Placebo",null,null,"DNK"],["GLPX1","DM","GLPX1-104-202","104-202","2024-02-27","2024-08-27","2024-02-27","2024-08-27",null,"2024-08-27",null,null,"104","1972-12-24","51","YEARS","M","WHITE","NOT HISPANIC OR LATINO","GLPX10","GLPX 10 mg","GLPX10","GLPX 10 mg",null,null,"GBR"],["GLPX1","DM","GLPX1-104-218","104-218","2024-01-29","2024-07-29","2024-01-29","2024-07-29",null,"2024-07-29",null,null,"104","1973-10-11","50","YEARS","F","WHITE","NOT HISPANIC OR LATINO","PBO","Placebo","PBO","Placebo",null,null,"DEU"],["GLPX1","DM","GLPX1-104-220","104-220","2024-03-20","2024-09-18","2024-03-20","2024-09-18",null,"2024-09-18",null,null,"104","1981-05-09","42","YEARS","F","WHITE","HISPANIC OR LATINO","GLPX10","GLPX 10 mg","GLPX10","GLPX 10 mg",null,null,"GBR"],["GLPX1","DM","GLPX1-104-227","104-227","2024-02-16","2024-06-12","2024-02-16","2024-06-12",null,"2024-06-12",null,null,"104","1955-11-02","68","YEARS","F","WHITE","NOT HISPANIC OR LATINO","GLPX10","GLPX 10 mg","GLPX10","GLPX 10 mg",null,null,"ESP"],["GLPX1","DM","GLPX1-104-259","104-259","2024-03-29","2024-09-27","2024-03-29","2024-09-27",null,"2024-09-27",null,null,"104","1964-05-11","59","YEARS","M","BLACK OR AFRICAN AMERICAN","NOT HISPANIC OR LATINO","GLPX10","GLPX 10 mg","GLPX10","GLPX 10 mg",null,null,"ESP"],["GLPX1","DM","GLPX1-104-268","104-268","2024-03-30","2024-09-28","2024-03-30","2024-09-28",null,"2024-09-28",null,null,"104","1965-04-25","58","YEARS","M","WHITE","NOT HISPANIC OR LATINO","PBO","Placebo","PBO","Placebo",null,null,"DNK"],["GLPX1","DM","GLPX1-104-278","104-278","2024-04-10","2024-06-19","2024-04-10","2024-06-19",null,"2024-06-19",null,null,"104","1960-10-15","63","YEARS","F","WHITE","NOT HISPANIC OR LATINO","GLPX10","GLPX 10 mg","GLPX10","GLPX 10 mg",null,null,"GBR"],["GLPX1","DM","GLPX1-104-293","104-293","2024-07-01","2024-08-27","2024-07-01","2024-08-27",null,"2024-08-27",null,null,"104","1975-05-08","49","YEARS","M","WHITE","HISPANIC OR LATINO","PBO","Placebo","PBO","Placebo",null,null,"POL"],["GLPX1","DM","GLPX1-104-304","104-304","2024-03-13","2024-09-11","2024-03-13","2024-09-11",null,"2024-09-11",null,null,"104","1960-07-01","63","YEARS","M","WHITE","NOT HISPANIC OR LATINO","PBO","Placebo","PBO","Placebo",null,null,"DEU"],["GLPX1","DM","GLPX1-104-315","104-315","2024-01-21","2024-07-21","2024-01-21","2024-07-21",null,"2024-07-21",null,null,"104","1975-02-06","48","YEARS","F","WHITE","NOT HISPANIC OR LATINO","PBO","Placebo","PBO","Placebo",null,null,"DEU"],["GLPX1","DM","GLPX1-104-316","104-316","2024-06-26","2024-12-25","2024-06-26","2024-12-25",null,"2024-12-25",null,null,"104","1965-11-23","58","YEARS","M","BLACK OR AFRICAN AMERICAN","NOT HISPANIC OR LATINO","PBO","Placebo","PBO","Placebo",null,null,"ESP"],["GLPX1","DM","GLPX1-104-328","104-328","2024-02-09","2024-08-09","2024-02-09","2024-08-09",null,"2024-08-09",null,null,"104","1968-06-15","55","YEARS","M","WHITE","NOT HISPANIC OR LATINO","GLPX10","GLPX 10 mg","GLPX10","GLPX 10 mg",null,null,"POL"],["GLPX1","DM","GLPX1-104-332","104-332","2024-02-04","2024-08-04","2024-02-04","2024-08-04",null,"2024-08-04",null,null,"104","1944-01-28","80","YEARS","F","BLACK OR AFRICAN AMERICAN","NOT HISPANIC OR LATINO","PBO","Placebo","PBO","Placebo",null,null,"GBR"],["GLPX1","DM","GLPX1-104-339","104-339","2024-01-30","2024-07-30","2024-01-30","2024-07-30",null,"2024-07-30",null,null,"104","1964-04-17","59","YEARS","M","BLACK OR AFRICAN AMERICAN","NOT HISPANIC OR LATINO","GLPX10","GLPX 10 mg","GLPX10","GLPX 10 mg",null,null,"ESP"],["GLPX1","DM","GLPX1-104-363","104-363","2024-04-18","2024-10-17","2024-04-18","2024-10-17",null,"2024-10-17",null,null,"104","1953-04-19","70","YEARS","F","WHITE","NOT HISPANIC OR LATINO","PBO","Placebo","PBO","Placebo",null,null,"GBR"],["GLPX1","DM","GLPX1-104-372","104-372","2024-02-04","2024-08-04","2024-02-04","2024-08-04",null,"2024-08-04",null,null,"104","1957-06-12","66","YEARS","M","WHITE","NOT HISPANIC OR LATINO","GLPX10","GLPX 10 mg","GLPX10","GLPX 10 mg",null,null,"GBR"],["GLPX1","DM","GLPX1-104-377","104-377","2024-06-16","2024-08-04","2024-06-16","2024-08-04",null,"2024-08-04",null,null,"104","1944-06-04","80","YEARS","M","WHITE","NOT HISPANIC OR LATINO","PBO","Placebo","PBO","Placebo",null,null,"DEU"],["GLPX1","DM","GLPX1-104-381","104-381","2024-06-21","2024-08-13","2024-06-21","2024-08-13",null,"2024-08-13",null,null,"104","1971-06-25","52","YEARS","M","WHITE","NOT HISPANIC OR LATINO","GLPX10","GLPX 10 mg","GLPX10","GLPX 10 mg",null,null,"ESP"],["GLPX1","DM","GLPX1-104-395","104-395","2024-03-05","2024-09-03","2024-03-05","2024-09-03",null,"2024-09-03",null,null,"104","1966-04-19","57","YEARS","M","WHITE","NOT HISPANIC OR LATINO","PBO","Placebo","PBO","Placebo",null,null,"ESP"],["GLPX1","DM","GLPX1-105-020","105-020","2024-04-30","2024-10-29","2024-04-30","2024-10-29",null,"2024-10-29",null,null,"105","1966-08-27","57","YEARS","M","ASIAN","NOT HISPANIC OR LATINO","GLPX10","GLPX 10 mg","GLPX10","GLPX 10 mg",null,null,"DNK"],["GLPX1","DM","GLPX1-105-067","105-067","2024-06-29","2024-09-21","2024-06-29","2024-09-21",null,"2024-09-21",null,null,"105","1966-06-19","58","YEARS","M","ASIAN","NOT HISPANIC OR LATINO","GLPX10","GLPX 10 mg","GLPX10","GLPX 10 mg",null,null,"DEU"],["GLPX1","DM","GLPX1-105-083","105-083","2024-02-23","2024-08-23","2024-02-23","2024-08-23",null,"2024-08-23",null,null,"105","1959-11-13","64","YEARS","F","WHITE","NOT HISPANIC OR LATINO","GLPX10","GLPX 10 mg","GLPX10","GLPX 10 mg",null,null,"DNK"],["GLPX1","DM","GLPX1-105-089","105-089","2024-05-29","2024-08-18","2024-05-29","2024-08-18",null,"2024-08-18",null,null,"105","1963-03-28","61","YEARS","F","WHITE","NOT HISPANIC OR LATINO","GLPX10","GLPX 10 mg","GLPX10","GLPX 10 mg",null,null,"GBR"],["GLPX1","DM","GLPX1-105-091","105-091","2024-02-15","2024-08-15","2024-02-15","2024-08-15",null,"2024-08-15",null,null,"105","1976-03-09","47","YEARS","M","WHITE","NOT HISPANIC OR LATINO","PBO","Placebo","PBO","Placebo",null,null,"DNK"],["GLPX1","DM","GLPX1-105-109","105-109","2024-06-27","2024-12-26","2024-06-27","2024-12-26",null,"2024-12-26",null,null,"105","1962-01-04","62","YEARS","M","BLACK OR AFRICAN AMERICAN","NOT HISPANIC OR LATINO","PBO","Placebo","PBO","Placebo",null,null,"ESP"],["GLPX1","DM","GLPX1-105-112","105-112","2024-07-06","2025-01-04","2024-07-06","2025-01-04",null,"2025-01-04",null,null,"105","1967-07-29","56","YEARS","M","WHITE","NOT HISPANIC OR LATINO","PBO","Placebo","PBO","Placebo",null,null,"POL"],["GLPX1","DM","GLPX1-105-117","105-117","2024-04-08","2024-06-06","2024-04-08","2024-06-06",null,"2024-06-06",null,null,"105","1945-04-27","78","YEARS","M","ASIAN","NOT HISPANIC OR LATINO","PBO","Placebo","PBO","Placebo",null,null,"ESP"],["GLPX1","DM","GLPX1-105-156","105-156","2024-05-14","2024-11-12","2024-05-14","2024-11-12",null,"2024-11-12",null,null,"105","1962-03-19","62","YEARS","F","WHITE","NOT HISPANIC OR LATINO","PBO","Placebo","PBO","Placebo",null,null,"ESP"],["GLPX1","DM","GLPX1-105-163","105-163","2024-01-22","2024-05-06","2024-01-22","2024-05-06",null,"2024-05-06",null,null,"105","1973-01-30","50","YEARS","M","WHITE","NOT HISPANIC OR LATINO","GLPX10","GLPX 10 mg","GLPX10","GLPX 10 mg",null,null,"DNK"],["GLPX1","DM","GLPX1-105-209","105-209","2024-06-22","2024-12-21","2024-06-22","2024-12-21",null,"2024-12-21",null,null,"105","1966-06-14","58","YEARS","F","BLACK OR AFRICAN AMERICAN","NOT HISPANIC OR LATINO","PBO","Placebo","PBO","Placebo",null,null,"DEU"],["GLPX1","DM","GLPX1-105-231","105-231","2024-03-03","2024-09-01","2024-03-03","2024-09-01",null,"2024-09-01",null,null,"105","1963-03-13","60","YEARS","M","WHITE","NOT HISPANIC OR LATINO","PBO","Placebo","PBO","Placebo",null,null,"DEU"],["GLPX1","DM","GLPX1-105-235","105-235","2024-04-14","2024-10-13","2024-04-14","2024-10-13",null,"2024-10-13",null,null,"105","1966-03-04","58","YEARS","F","ASIAN","NOT HISPANIC OR LATINO","PBO","Placebo","PBO","Placebo",null,null,"ESP"],["GLPX1","DM","GLPX1-105-237","105-237","2024-06-04","2024-12-03","2024-06-04","2024-12-03",null,"2024-12-03",null,null,"105","1978-01-06","46","YEARS","M","WHITE","NOT HISPANIC OR LATINO","GLPX10","GLPX 10 mg","GLPX10","GLPX 10 mg",null,null,"POL"],["GLPX1","DM","GLPX1-105-250","105-250","2024-06-24","2024-12-23","2024-06-24","2024-12-23",null,"2024-12-23",null,null,"105","1966-11-25","57","YEARS","M","ASIAN","NOT HISPANIC OR LATINO","PBO","Placebo","PBO","Placebo",null,null,"DEU"],["GLPX1","DM","GLPX1-105-260","105-260","2024-06-17","2024-12-16","2024-06-17","2024-12-16",null,"2024-12-16",null,null,"105","1955-06-30","68","YEARS","F","WHITE","NOT HISPANIC OR LATINO","GLPX10","GLPX 10 mg","GLPX10","GLPX 10 mg",null,null,"POL"],["GLPX1","DM","GLPX1-105-319","105-319","2024-04-20","2024-10-19","2024-04-20","2024-10-19",null,"2024-10-19",null,null,"105","1955-09-05","68","YEARS","M","WHITE","NOT HISPANIC OR LATINO","GLPX10","GLPX 10 mg","GLPX10","GLPX 10 mg",null,null,"GBR"],["GLPX1","DM","GLPX1-105-352","105-352","2024-04-15","2024-08-07","2024-04-15","2024-08-07",null,"2024-08-07",null,null,"105","1960-09-12","63","YEARS","F","ASIAN","NOT HISPANIC OR LATINO","GLPX10","GLPX 10 mg","GLPX10","GLPX 10 mg",null,null,"DEU"],["GLPX1","DM","GLPX1-105-355","105-355","2024-03-03","2024-09-01","2024-03-03","2024-09-01",null,"2024-09-01",null,null,"105","1965-08-04","58","YEARS","M","ASIAN","NOT HISPANIC OR LATINO","PBO","Placebo","PBO","Placebo",null,null,"DEU"],["GLPX1","DM","GLPX1-105-357","105-357","2024-06-24","2024-12-23","2024-06-24","2024-12-23",null,"2024-12-23",null,null,"105","1955-03-28","69","YEARS","M","BLACK OR AFRICAN AMERICAN","NOT HISPANIC OR LATINO","PBO","Placebo","PBO","Placebo",null,null,"DEU"],["GLPX1","DM","GLPX1-105-361","105-361","2024-02-11","2024-08-11","2024-02-11","2024-08-11",null,"2024-08-11",null,null,"105","1962-08-16","61","YEARS","F","WHITE","NOT HISPANIC OR LATINO","GLPX10","GLPX 10 mg","GLPX10","GLPX 10 mg",null,null,"DEU"],["GLPX1","DM","GLPX1-105-390","105-390","2024-06-21","2024-12-20","2024-06-21","2024-12-20",null,"2024-12-20",null,null,"105","1959-05-22","65","YEARS","M","BLACK OR AFRICAN AMERICAN","NOT HISPANIC OR LATINO","GLPX10","GLPX 10 mg","GLPX10","GLPX 10 mg",null,null,"DEU"],["GLPX1","DM","GLPX1-105-394","105-394","2024-06-03","2024-12-02","2024-06-03","2024-12-02",null,"2024-12-02",null,null,"105","1979-09-22","44","YEARS","M","BLACK OR AFRICAN AMERICAN","NOT HISPANIC OR LATINO","GLPX10","GLPX 10 mg","GLPX10","GLPX 10 mg",null,null,"DEU"],["GLPX1","DM","GLPX1-106-001","106-001","2024-07-02","2024-12-31","2024-07-02","2024-12-31",null,"2024-12-31",null,null,"106","1991-03-01","33","YEARS","M","WHITE","HISPANIC OR LATINO","GLPX10","GLPX 10 mg","GLPX10","GLPX 10 mg",null,null,"DEU"],["GLPX1","DM","GLPX1-106-016","106-016","2024-04-24","2024-10-23","2024-04-24","2024-10-23",null,"2024-10-23",null,null,"106","1961-05-30","62","YEARS","M","WHITE","NOT HISPANIC OR LATINO","GLPX10","GLPX 10 mg","GLPX10","GLPX 10 mg",null,null,"POL"],["GLPX1","DM","GLPX1-106-048","106-048","2024-06-01","2024-11-30","2024-06-01","2024-11-30",null,"2024-11-30",null,null,"106","1970-02-09","54","YEARS","M","WHITE","NOT HISPANIC OR LATINO","PBO","Placebo","PBO","Placebo",null,null,"ESP"],["GLPX1","DM","GLPX1-106-064","106-064","2024-01-17","2024-04-29","2024-01-17","2024-04-29",null,"2024-04-29",null,null,"106","1950-07-15","73","YEARS","M","ASIAN","NOT HISPANIC OR LATINO","GLPX10","GLPX 10 mg","GLPX10","GLPX 10 mg",null,null,"DNK"],["GLPX1","DM","GLPX1-106-073","106-073","2024-04-12","2024-10-11","2024-04-12","2024-10-11",null,"2024-10-11",null,null,"106","1956-06-27","67","YEARS","F","WHITE","NOT HISPANIC OR LATINO","GLPX10","GLPX 10 mg","GLPX10","GLPX 10 mg",null,null,"DEU"],["GLPX1","DM","GLPX1-106-079","106-079","2024-01-29","2024-07-29","2024-01-29","2024-07-29",null,"2024-07-29",null,null,"106","1975-05-08","48","YEARS","M","WHITE","NOT HISPANIC OR LATINO","GLPX10","GLPX 10 mg","GLPX10","GLPX 10 mg",null,null,"DNK"],["GLPX1","DM","GLPX1-106-082","106-082","2024-06-05","2024-12-04","2024-06-05","2024-12-04",null,"2024-12-04",null,null,"106","1968-07-29","55","YEARS","M","WHITE","NOT HISPANIC OR LATINO","GLPX10","GLPX 10 mg","GLPX10","GLPX 10 mg",null,null,"GBR"],["GLPX1","DM","GLPX1-106-090","106-090","2024-06-10","2024-10-09","2024-06-10","2024-10-09",null,"2024-10-09",null,null,"106","1960-07-21","63","YEARS","M","WHITE","NOT HISPANIC OR LATINO","GLPX10","GLPX 10 mg","GLPX10","GLPX 10 mg",null,null,"DNK"],["GLPX1","DM","GLPX1-106-094","106-094","2024-03-05","2024-09-03","2024-03-05","2024-09-03",null,"2024-09-03",null,null,"106","1952-04-21","71","YEARS","M","WHITE","NOT HISPANIC OR LATINO","PBO","Placebo","PBO","Placebo",null,null,"GBR"],["GLPX1","DM","GLPX1-106-097","106-097","2024-04-09","2024-10-08","2024-04-09","2024-10-08",null,"2024-10-08",null,null,"106","1963-11-27","60","YEARS","F","ASIAN","NOT HISPANIC OR LATINO","GLPX10","GLPX 10 mg","GLPX10","GLPX 10 mg",null,null,"DEU"],["GLPX1","DM","GLPX1-106-130","106-130","2024-05-27","2024-11-25","2024-05-27","2024-11-25",null,"2024-11-25",null,null,"106","1968-06-06","55","YEARS","M","WHITE","NOT HISPANIC OR LATINO","GLPX10","GLPX 10 mg","GLPX10","GLPX 10 mg",null,null,"POL"],["GLPX1","DM","GLPX1-106-144","106-144","2024-04-03","2024-10-02","2024-04-03","2024-10-02",null,"2024-10-02",null,null,"106","1967-09-17","56","YEARS","M","WHITE","NOT HISPANIC OR LATINO","GLPX10","GLPX 10 mg","GLPX10","GLPX 10 mg",null,null,"DNK"],["GLPX1","DM","GLPX1-106-159","106-159","2024-07-03","2025-01-01","2024-07-03","2025-01-01",null,"2025-01-01",null,null,"106","1954-06-12","70","YEARS","M","ASIAN","HISPANIC OR LATINO","GLPX10","GLPX 10 mg","GLPX10","GLPX 10 mg",null,null,"GBR"],["GLPX1","DM","GLPX1-106-162","106-162","2024-01-29","2024-07-29","2024-01-29","2024-07-29",null,"2024-07-29",null,null,"106","1948-11-28","75","YEARS","F","WHITE","NOT HISPANIC OR LATINO","PBO","Placebo","PBO","Placebo",null,null,"DEU"],["GLPX1","DM","GLPX1-106-171","106-171","2024-07-03","2025-01-01","2024-07-03","2025-01-01",null,"2025-01-01",null,null,"106","1974-04-28","50","YEARS","F","WHITE","HISPANIC OR LATINO","GLPX10","GLPX 10 mg","GLPX10","GLPX 10 mg",null,null,"GBR"],["GLPX1","DM","GLPX1-106-186","106-186","2024-02-22","2024-08-22","2024-02-22","2024-08-22",null,"2024-08-22",null,null,"106","1964-01-09","60","YEARS","M","WHITE","NOT HISPANIC OR LATINO","PBO","Placebo","PBO","Placebo",null,null,"DEU"],["GLPX1","DM","GLPX1-106-195","106-195","2024-04-12","2024-10-11","2024-04-12","2024-10-11",null,"2024-10-11",null,null,"106","1980-03-10","44","YEARS","M","OTHER","NOT HISPANIC OR LATINO","PBO","Placebo","PBO","Placebo",null,null,"ESP"],["GLPX1","DM","GLPX1-106-196","106-196","2024-07-01","2024-12-30","2024-07-01","2024-12-30",null,"2024-12-30",null,null,"106","1961-04-06","63","YEARS","M","WHITE","NOT HISPANIC OR LATINO","PBO","Placebo","PBO","Placebo",null,null,"DEU"],["GLPX1","DM","GLPX1-106-203","106-203","2024-05-24","2024-11-22","2024-05-24","2024-11-22",null,"2024-11-22",null,null,"106","1972-03-03","52","YEARS","F","ASIAN","NOT HISPANIC OR LATINO","GLPX10","GLPX 10 mg","GLPX10","GLPX 10 mg",null,null,"DEU"],["GLPX1","DM","GLPX1-106-206","106-206","2024-04-15","2024-10-14","2024-04-15","2024-10-14",null,"2024-10-14",null,null,"106","1965-02-27","59","YEARS","M","WHITE","NOT HISPANIC OR LATINO","GLPX10","GLPX 10 mg","GLPX10","GLPX 10 mg",null,null,"DNK"],["GLPX1","DM","GLPX1-106-213","106-213","2024-02-20","2024-08-20","2024-02-20","2024-08-20",null,"2024-08-20",null,null,"106","1959-05-19","64","YEARS","F","WHITE","NOT HISPANIC OR LATINO","GLPX10","GLPX 10 mg","GLPX10","GLPX 10 mg",null,null,"DEU"],["GLPX1","DM","GLPX1-106-217","106-217","2024-03-20","2024-09-18","2024-03-20","2024-09-18",null,"2024-09-18",null,null,"106","1983-02-27","41","YEARS","F","WHITE","NOT HISPANIC OR LATINO","PBO","Placebo","PBO","Placebo",null,null,"ESP"],["GLPX1","DM","GLPX1-106-246","106-246","2024-05-13","2024-11-11","2024-05-13","2024-11-11",null,"2024-11-11",null,null,"106","1969-03-10","55","YEARS","M","WHITE","NOT HISPANIC OR LATINO","PBO","Placebo","PBO","Placebo",null,null,"GBR"],["GLPX1","DM","GLPX1-106-262","106-262","2024-04-15","2024-10-14","2024-04-15","2024-10-14",null,"2024-10-14",null,null,"106","1957-11-03","66","YEARS","F","OTHER","NOT HISPANIC OR LATINO","PBO","Placebo","PBO","Placebo",null,null,"DEU"],["GLPX1","DM","GLPX1-106-271","106-271","2024-02-04","2024-08-04","2024-02-04","2024-08-04",null,"2024-08-04",null,null,"106","1959-01-26","65","YEARS","F","WHITE","NOT HISPANIC OR LATINO","PBO","Placebo","PBO","Placebo",null,null,"POL"],["GLPX1","DM","GLPX1-106-274","106-274","2024-01-21","2024-07-21","2024-01-21","2024-07-21",null,"2024-07-21",null,null,"106","1968-03-15","55","YEARS","F","WHITE","NOT HISPANIC OR LATINO","PBO","Placebo","PBO","Placebo",null,null,"GBR"],["GLPX1","DM","GLPX1-106-297","106-297","2024-05-13","2024-10-10","2024-05-13","2024-10-10",null,"2024-10-10",null,null,"106","1969-07-05","54","YEARS","F","WHITE","NOT HISPANIC OR LATINO","GLPX10","GLPX 10 mg","GLPX10","GLPX 10 mg",null,null,"DEU"],["GLPX1","DM","GLPX1-106-307","106-307","2024-03-02","2024-08-31","2024-03-02","2024-08-31",null,"2024-08-31",null,null,"106","1980-01-20","44","YEARS","F","OTHER","NOT HISPANIC OR LATINO","PBO","Placebo","PBO","Placebo",null,null,"DNK"],["GLPX1","DM","GLPX1-106-311","106-311","2024-04-05","2024-10-04","2024-04-05","2024-10-04",null,"2024-10-04",null,null,"106","1979-10-03","44","YEARS","M","BLACK OR AFRICAN AMERICAN","NOT HISPANIC OR LATINO","PBO","Placebo","PBO","Placebo",null,null,"ESP"],["GLPX1","DM","GLPX1-106-314","106-314","2024-06-08","2024-12-07","2024-06-08","2024-12-07",null,"2024-12-07",null,null,"106","1979-09-06","44","YEARS","M","WHITE","NOT HISPANIC OR LATINO","GLPX10","GLPX 10 mg","GLPX10","GLPX 10 mg",null,null,"DEU"],["GLPX1","DM","GLPX1-106-324","106-324","2024-04-23","2024-10-22","2024-04-23","2024-10-22",null,"2024-10-22",null,null,"106","1967-02-13","57","YEARS","F","ASIAN","NOT HISPANIC OR LATINO","PBO","Placebo","PBO","Placebo",null,null,"DEU"],["GLPX1","DM","GLPX1-106-327","106-327","2024-05-08","2024-11-06","2024-05-08","2024-11-06",null,"2024-11-06",null,null,"106","1961-06-18","62","YEARS","F","ASIAN","NOT HISPANIC OR LATINO","PBO","Placebo","PBO","Placebo",null,null,"POL"],["GLPX1","DM","GLPX1-106-347","106-347","2024-03-20","2024-09-18","2024-03-20","2024-09-18",null,"2024-09-18",null,null,"106","1972-05-22","51","YEARS","F","WHITE","NOT HISPANIC OR LATINO","GLPX10","GLPX 10 mg","GLPX10","GLPX 10 mg",null,null,"GBR"],["GLPX1","DM","GLPX1-106-359","106-359","2024-06-06","2024-07-20","2024-06-06","2024-07-20",null,"2024-07-20",null,null,"106","1963-04-24","61","YEARS","M","OTHER","NOT HISPANIC OR LATINO","GLPX10","GLPX 10 mg","GLPX10","GLPX 10 mg",null,null,"DEU"],["GLPX1","DM","GLPX1-106-364","106-364","2024-02-12","2024-08-12","2024-02-12","2024-08-12",null,"2024-08-12",null,null,"106","1982-02-20","41","YEARS","M","WHITE","NOT HISPANIC OR LATINO","PBO","Placebo","PBO","Placebo",null,null,"GBR"],["GLPX1","DM","GLPX1-107-008","107-008","2024-02-16","2024-08-16","2024-02-16","2024-08-16",null,"2024-08-16",null,null,"107","1975-12-16","48","YEARS","M","WHITE","NOT HISPANIC OR LATINO","GLPX10","GLPX 10 mg","GLPX10","GLPX 10 mg",null,null,"DNK"],["GLPX1","DM","GLPX1-107-015","107-015","2024-04-22","2024-10-21","2024-04-22","2024-10-21",null,"2024-10-21",null,null,"107","1956-04-20","68","YEARS","F","WHITE","HISPANIC OR LATINO","PBO","Placebo","PBO","Placebo",null,null,"DNK"],["GLPX1","DM","GLPX1-107-039","107-039","2024-03-17","2024-09-15","2024-03-17","2024-09-15",null,"2024-09-15",null,null,"107","1968-12-29","55","YEARS","F","WHITE","NOT HISPANIC OR LATINO","GLPX10","GLPX 10 mg","GLPX10","GLPX 10 mg",null,null,"DEU"],["GLPX1","DM","GLPX1-107-046","107-046","2024-05-09","2024-11-07","2024-05-09","2024-11-07",null,"2024-11-07",null,null,"107","1963-08-19","60","YEARS","F","WHITE","NOT HISPANIC OR LATINO","PBO","Placebo","PBO","Placebo",null,null,"GBR"],["GLPX1","DM","GLPX1-107-058","107-058","2024-03-13","2024-09-11","2024-03-13","2024-09-11",null,"2024-09-11",null,null,"107","1963-01-01","61","YEARS","F","WHITE","NOT HISPANIC OR LATINO","GLPX10","GLPX 10 mg","GLPX10","GLPX 10 mg",null,null,"DNK"],["GLPX1","DM","GLPX1-107-070","107-070","2024-04-20","2024-10-19","2024-04-20","2024-10-19",null,"2024-10-19",null,null,"107","1981-11-18","42","YEARS","M","WHITE","NOT HISPANIC OR LATINO","GLPX10","GLPX 10 mg","GLPX10","GLPX 10 mg",null,null,"POL"],["GLPX1","DM","GLPX1-107-088","107-088","2024-03-13","2024-09-11","2024-03-13","2024-09-11",null,"2024-09-11",null,null,"107","1963-12-15","60","YEARS","M","WHITE","NOT HISPANIC OR LATINO","PBO","Placebo","PBO","Placebo",null,null,"DNK"],["GLPX1","DM","GLPX1-107-124","107-124","2024-03-01","2024-08-30","2024-03-01","2024-08-30",null,"2024-08-30",null,null,"107","1958-12-29","65","YEARS","F","WHITE","NOT HISPANIC OR LATINO","GLPX10","GLPX 10 mg","GLPX10","GLPX 10 mg",null,null,"POL"],["GLPX1","DM","GLPX1-107-154","107-154","2024-05-13","2024-11-11","2024-05-13","2024-11-11",null,"2024-11-11",null,null,"107","1966-09-08","57","YEARS","M","OTHER","NOT HISPANIC OR LATINO","GLPX10","GLPX 10 mg","GLPX10","GLPX 10 mg",null,null,"ESP"],["GLPX1","DM","GLPX1-107-219","107-219","2024-03-15","2024-09-13","2024-03-15","2024-09-13",null,"2024-09-13",null,null,"107","1968-02-14","56","YEARS","M","WHITE","NOT HISPANIC OR LATINO","GLPX10","GLPX 10 mg","GLPX10","GLPX 10 mg",null,null,"DEU"],["GLPX1","DM","GLPX1-107-251","107-251","2024-06-03","2024-12-02","2024-06-03","2024-12-02",null,"2024-12-02",null,null,"107","1965-08-21","58","YEARS","M","WHITE","NOT HISPANIC OR LATINO","PBO","Placebo","PBO","Placebo",null,null,"DNK"],["GLPX1","DM","GLPX1-107-252","107-252","2024-06-06","2024-12-05","2024-06-06","2024-12-05",null,"2024-12-05",null,null,"107","1955-12-19","68","YEARS","F","WHITE","NOT HISPANIC OR LATINO","GLPX10","GLPX 10 mg","GLPX10","GLPX 10 mg",null,null,"GBR"],["GLPX1","DM","GLPX1-107-255","107-255","2024-04-21","2024-10-20","2024-04-21","2024-10-20",null,"2024-10-20",null,null,"107","1955-01-24","69","YEARS","M","ASIAN","NOT HISPANIC OR LATINO","PBO","Placebo","PBO","Placebo",null,null,"DEU"],["GLPX1","DM","GLPX1-107-267","107-267","2024-03-15","2024-09-13","2024-03-15","2024-09-13",null,"2024-09-13",null,null,"107","1967-12-25","56","YEARS","M","WHITE","NOT HISPANIC OR LATINO","PBO","Placebo","PBO","Placebo",null,null,"GBR"],["GLPX1","DM","GLPX1-107-279","107-279","2024-03-19","2024-09-17","2024-03-19","2024-09-17",null,"2024-09-17",null,null,"107","1964-01-19","60","YEARS","M","WHITE","NOT HISPANIC OR LATINO","PBO","Placebo","PBO","Placebo",null,null,"POL"],["GLPX1","DM","GLPX1-107-281","107-281","2024-06-06","2024-10-13","2024-06-06","2024-10-13",null,"2024-10-13",null,null,"107","1950-08-13","73","YEARS","M","ASIAN","NOT HISPANIC OR LATINO","GLPX10","GLPX 10 mg","GLPX10","GLPX 10 mg",null,null,"DNK"],["GLPX1","DM","GLPX1-107-286","107-286","2024-04-16","2024-10-15","2024-04-16","2024-10-15",null,"2024-10-15",null,null,"107","1956-05-23","67","YEARS","M","WHITE","NOT HISPANIC OR LATINO","GLPX10","GLPX 10 mg","GLPX10","GLPX 10 mg",null,null,"ESP"],["GLPX1","DM","GLPX1-107-298","107-298","2024-06-13","2024-12-12","2024-06-13","2024-12-12",null,"2024-12-12",null,null,"107","1978-11-27","45","YEARS","M","WHITE","NOT HISPANIC OR LATINO","GLPX10","GLPX 10 mg","GLPX10","GLPX 10 mg",null,null,"ESP"],["GLPX1","DM","GLPX1-107-299","107-299","2024-03-15","2024-09-13","2024-03-15","2024-09-13",null,"2024-09-13",null,null,"107","1962-01-11","62","YEARS","F","WHITE","NOT HISPANIC OR LATINO","GLPX10","GLPX 10 mg","GLPX10","GLPX 10 mg",null,null,"DEU"],["GLPX1","DM","GLPX1-107-312","107-312","2024-05-26","2024-11-24","2024-05-26","2024-11-24",null,"2024-11-24",null,null,"107","1969-03-26","55","YEARS","M","WHITE","HISPANIC OR LATINO","PBO","Placebo","PBO","Placebo",null,null,"DEU"],["GLPX1","DM","GLPX1-107-313","107-313","2024-05-09","2024-11-07","2024-05-09","2024-11-07",null,"2024-11-07",null,null,"107","1959-12-08","64","YEARS","F","WHITE","NOT HISPANIC OR LATINO","PBO","Placebo","PBO","Placebo",null,null,"DEU"],["GLPX1","DM","GLPX1-107-320","107-320","2024-01-30","2024-07-30","2024-01-30","2024-07-30",null,"2024-07-30",null,null,"107","1954-04-10","69","YEARS","F","ASIAN","NOT HISPANIC OR LATINO","PBO","Placebo","PBO","Placebo",null,null,"GBR"],["GLPX1","DM","GLPX1-107-321","107-321","2024-05-18","2024-11-16","2024-05-18","2024-11-16",null,"2024-11-16",null,null,"107","1966-01-30","58","YEARS","F","WHITE","NOT HISPANIC OR LATINO","GLPX10","GLPX 10 mg","GLPX10","GLPX 10 mg",null,null,"DNK"],["GLPX1","DM","GLPX1-107-333","107-333","2024-02-07","2024-08-07","2024-02-07","2024-08-07",null,"2024-08-07",null,null,"107","1988-08-02","35","YEARS","M","WHITE","NOT HISPANIC OR LATINO","PBO","Placebo","PBO","Placebo",null,null,"GBR"],["GLPX1","DM","GLPX1-107-334","107-334","2024-04-13","2024-10-12","2024-04-13","2024-10-12",null,"2024-10-12",null,null,"107","1975-02-12","49","YEARS","F","WHITE","NOT HISPANIC OR LATINO","PBO","Placebo","PBO","Placebo",null,null,"DNK"],["GLPX1","DM","GLPX1-107-337","107-337","2024-04-26","2024-10-25","2024-04-26","2024-10-25",null,"2024-10-25",null,null,"107","1968-05-15","55","YEARS","M","WHITE","NOT HISPANIC OR LATINO","PBO","Placebo","PBO","Placebo",null,null,"DEU"],["GLPX1","DM","GLPX1-107-348","107-348","2024-07-03","2025-01-01","2024-07-03","2025-01-01",null,"2025-01-01",null,null,"107","1962-02-05","62","YEARS","M","WHITE","NOT HISPANIC OR LATINO","PBO","Placebo","PBO","Placebo",null,null,"DEU"],["GLPX1","DM","GLPX1-107-366","107-366","2024-06-09","2024-12-08","2024-06-09","2024-12-08",null,"2024-12-08",null,null,"107","1958-09-20","65","YEARS","M","WHITE","NOT HISPANIC OR LATINO","PBO","Placebo","PBO","Placebo",null,null,"GBR"],["GLPX1","DM","GLPX1-107-374","107-374","2024-05-24","2024-11-22","2024-05-24","2024-11-22",null,"2024-11-22",null,null,"107","1968-11-13","55","YEARS","F","OTHER","NOT HISPANIC OR LATINO","GLPX10","GLPX 10 mg","GLPX10","GLPX 10 mg",null,null,"GBR"],["GLPX1","DM","GLPX1-107-380","107-380","2024-05-25","2024-11-23","2024-05-25","2024-11-23",null,"2024-11-23",null,null,"107","1963-01-26","61","YEARS","F","WHITE","NOT HISPANIC OR LATINO","GLPX10","GLPX 10 mg","GLPX10","GLPX 10 mg",null,null,"DEU"],["GLPX1","DM","GLPX1-107-387","107-387","2024-04-07","2024-10-06","2024-04-07","2024-10-06",null,"2024-10-06",null,null,"107","1950-03-31","74","YEARS","M","WHITE","NOT HISPANIC OR LATINO","GLPX10","GLPX 10 mg","GLPX10","GLPX 10 mg",null,null,"GBR"],["GLPX1","DM","GLPX1-107-392","107-392","2024-04-22","2024-10-21","2024-04-22","2024-10-21",null,"2024-10-21",null,null,"107","1970-12-10","53","YEARS","F","WHITE","NOT HISPANIC OR LATINO","PBO","Placebo","PBO","Placebo",null,null,"DNK"],["GLPX1","DM","GLPX1-108-009","108-009","2024-03-03","2024-09-01","2024-03-03","2024-09-01",null,"2024-09-01",null,null,"108","1970-09-07","53","YEARS","F","WHITE","NOT HISPANIC OR LATINO","PBO","Placebo","PBO","Placebo",null,null,"GBR"],["GLPX1","DM","GLPX1-108-019","108-019","2024-04-21","2024-10-20","2024-04-21","2024-10-20",null,"2024-10-20",null,null,"108","1947-10-28","76","YEARS","F","BLACK OR AFRICAN AMERICAN","HISPANIC OR LATINO","PBO","Placebo","PBO","Placebo",null,null,"DEU"],["GLPX1","DM","GLPX1-108-032","108-032","2024-02-23","2024-08-23","2024-02-23","2024-08-23",null,"2024-08-23",null,null,"108","1971-02-02","53","YEARS","F","WHITE","NOT HISPANIC OR LATINO","GLPX10","GLPX 10 mg","GLPX10","GLPX 10 mg",null,null,"GBR"],["GLPX1","DM","GLPX1-108-033","108-033","2024-06-26","2024-12-25","2024-06-26","2024-12-25",null,"2024-12-25",null,null,"108","1957-04-07","67","YEARS","M","WHITE","NOT HISPANIC OR LATINO","GLPX10","GLPX 10 mg","GLPX10","GLPX 10 mg",null,null,"GBR"],["GLPX1","DM","GLPX1-108-034","108-034","2024-06-28","2024-12-27","2024-06-28","2024-12-27",null,"2024-12-27",null,null,"108","1965-11-02","58","YEARS","M","WHITE","HISPANIC OR LATINO","PBO","Placebo","PBO","Placebo",null,null,"DNK"],["GLPX1","DM","GLPX1-108-043","108-043","2024-02-21","2024-08-21","2024-02-21","2024-08-21",null,"2024-08-21",null,null,"108","1957-08-12","66","YEARS","F","BLACK OR AFRICAN AMERICAN","NOT HISPANIC OR LATINO","PBO","Placebo","PBO","Placebo",null,null,"POL"],["GLPX1","DM","GLPX1-108-078","108-078","2024-04-22","2024-10-21","2024-04-22","2024-10-21",null,"2024-10-21",null,null,"108","1980-12-05","43","YEARS","M","ASIAN","NOT HISPANIC OR LATINO","PBO","Placebo","PBO","Placebo",null,null,"DNK"],["GLPX1","DM","GLPX1-108-084","108-084","2024-05-22","2024-11-20","2024-05-22","2024-11-20",null,"2024-11-20",null,null,"108","1972-01-08","52","YEARS","F","ASIAN","NOT HISPANIC OR LATINO","PBO","Placebo","PBO","Placebo",null,null,"DEU"],["GLPX1","DM","GLPX1-108-108","108-108","2024-06-03","2024-12-02","2024-06-03","2024-12-02",null,"2024-12-02",null,null,"108","1970-12-19","53","YEARS","M","WHITE","NOT HISPANIC OR LATINO","PBO","Placebo","PBO","Placebo",null,null,"POL"],["GLPX1","DM","GLPX1-108-110","108-110","2024-02-28","2024-08-28","2024-02-28","2024-08-28",null,"2024-08-28",null,null,"108","1968-10-17","55","YEARS","F","WHITE","NOT HISPANIC OR LATINO","GLPX10","GLPX 10 mg","GLPX10","GLPX 10 mg",null,null,"DEU"],["GLPX1","DM","GLPX1-108-111","108-111","2024-07-03","2025-01-01","2024-07-03","2025-01-01",null,"2025-01-01",null,null,"108","1950-08-30","73","YEARS","F","WHITE","NOT HISPANIC OR LATINO","PBO","Placebo","PBO","Placebo",null,null,"ESP"],["GLPX1","DM","GLPX1-108-115","108-115","2024-04-13","2024-10-12","2024-04-13","2024-10-12",null,"2024-10-12",null,null,"108","1978-09-20","45","YEARS","F","OTHER","NOT HISPANIC OR LATINO","GLPX10","GLPX 10 mg","GLPX10","GLPX 10 mg",null,null,"POL"],["GLPX1","DM","GLPX1-108-134","108-134","2024-07-12","2025-01-10","2024-07-12","2025-01-10",null,"2025-01-10",null,null,"108","1970-08-16","53","YEARS","M","WHITE","NOT HISPANIC OR LATINO","GLPX10","GLPX 10 mg","GLPX10","GLPX 10 mg",null,null,"ESP"],["GLPX1","DM","GLPX1-108-148","108-148","2024-02-23","2024-08-23","2024-02-23","2024-08-23",null,"2024-08-23",null,null,"108","1970-11-26","53","YEARS","M","WHITE","NOT HISPANIC OR LATINO","GLPX10","GLPX 10 mg","GLPX10","GLPX 10 mg",null,null,"DEU"],["GLPX1","DM","GLPX1-108-149","108-149","2024-05-12","2024-11-10","2024-05-12","2024-11-10",null,"2024-11-10",null,null,"108","1957-03-05","67","YEARS","M","ASIAN","NOT HISPANIC OR LATINO","GLPX10","GLPX 10 mg","GLPX10","GLPX 10 mg",null,null,"DNK"],["GLPX1","DM","GLPX1-108-151","108-151","2024-04-09","2024-10-08","2024-04-09","2024-10-08",null,"2024-10-08",null,null,"108","1962-11-25","61","YEARS","F","WHITE","NOT HISPANIC OR LATINO","GLPX10","GLPX 10 mg","GLPX10","GLPX 10 mg",null,null,"DNK"],["GLPX1","DM","GLPX1-108-170","108-170","2024-06-13","2024-12-12","2024-06-13","2024-12-12",null,"2024-12-12",null,null,"108","1964-04-07","60","YEARS","F","OTHER","NOT HISPANIC OR LATINO","GLPX10","GLPX 10 mg","GLPX10","GLPX 10 mg",null,null,"DNK"],["GLPX1","DM","GLPX1-108-181","108-181","2024-02-18","2024-08-18","2024-02-18","2024-08-18",null,"2024-08-18",null,null,"108","1957-08-06","66","YEARS","M","ASIAN","NOT HISPANIC OR LATINO","PBO","Placebo","PBO","Placebo",null,null,"DNK"],["GLPX1","DM","GLPX1-108-200","108-200","2024-04-21","2024-10-20","2024-04-21","2024-10-20",null,"2024-10-20",null,null,"108","1971-06-15","52","YEARS","M","WHITE","NOT HISPANIC OR LATINO","PBO","Placebo","PBO","Placebo",null,null,"DEU"],["GLPX1","DM","GLPX1-108-204","108-204","2024-03-16","2024-09-14","2024-03-16","2024-09-14",null,"2024-09-14",null,null,"108","1966-10-26","57","YEARS","M","WHITE","HISPANIC OR LATINO","PBO","Placebo","PBO","Placebo",null,null,"ESP"],["GLPX1","DM","GLPX1-108-221","108-221","2024-06-18","2024-12-17","2024-06-18","2024-12-17",null,"2024-12-17",null,null,"108","1964-08-29","59","YEARS","M","WHITE","NOT HISPANIC OR LATINO","GLPX10","GLPX 10 mg","GLPX10","GLPX 10 mg",null,null,"ESP"],["GLPX1","DM","GLPX1-108-222","108-222","2024-04-03","2024-10-02","2024-04-03","2024-10-02",null,"2024-10-02",null,null,"108","1969-01-25","55","YEARS","F","ASIAN","NOT HISPANIC OR LATINO","PBO","Placebo","PBO","Placebo",null,null,"ESP"],["GLPX1","DM","GLPX1-108-224","108-224","2024-04-01","2024-09-30","2024-04-01","2024-09-30",null,"2024-09-30",null,null,"108","1960-01-13","64","YEARS","M","ASIAN","NOT HISPANIC OR LATINO","GLPX10","GLPX 10 mg","GLPX10","GLPX 10 mg",null,null,"POL"],["GLPX1","DM","GLPX1-108-236","108-236","2024-05-15","2024-11-13","2024-05-15","2024-11-13",null,"2024-11-13",null,null,"108","1964-03-04","60","YEARS","M","WHITE","NOT HISPANIC OR LATINO","GLPX10","GLPX 10 mg","GLPX10","GLPX 10 mg",null,null,"DEU"],["GLPX1","DM","GLPX1-108-245","108-245","2024-07-12","2025-01-10","2024-07-12","2025-01-10",null,"2025-01-10",null,null,"108","1959-05-27","65","YEARS","F","WHITE","NOT HISPANIC OR LATINO","GLPX10","GLPX 10 mg","GLPX10","GLPX 10 mg",null,null,"POL"],["GLPX1","DM","GLPX1-108-256","108-256","2024-06-15","2024-12-14","2024-06-15","2024-12-14",null,"2024-12-14",null,null,"108","1951-12-30","72","YEARS","M","WHITE","NOT HISPANIC OR LATINO","PBO","Placebo","PBO","Placebo",null,null,"DNK"],["GLPX1","DM","GLPX1-108-258","108-258","2024-07-12","2025-01-10","2024-07-12","2025-01-10",null,"2025-01-10",null,null,"108","1952-11-17","71","YEARS","F","WHITE","NOT HISPANIC OR LATINO","PBO","Placebo","PBO","Placebo",null,null,"POL"],["GLPX1","DM","GLPX1-108-283","108-283","2024-02-04","2024-08-04","2024-02-04","2024-08-04",null,"2024-08-04",null,null,"108","1950-12-07","73","YEARS","M","WHITE","NOT HISPANIC OR LATINO","GLPX10","GLPX 10 mg","GLPX10","GLPX 10 mg",null,null,"DEU"],["GLPX1","DM","GLPX1-108-285","108-285","2024-01-21","2024-07-21","2024-01-21","2024-07-21",null,"2024-07-21",null,null,"108","1964-05-09","59","YEARS","M","ASIAN","NOT HISPANIC OR LATINO","GLPX10","GLPX 10 mg","GLPX10","GLPX 10 mg",null,null,"GBR"],["GLPX1","DM","GLPX1-108-296","108-296","2024-06-14","2024-09-07","2024-06-14","2024-09-07",null,"2024-09-07",null,null,"108","1983-07-04","40","YEARS","M","ASIAN","NOT HISPANIC OR LATINO","PBO","Placebo","PBO","Placebo",null,null,"DNK"],["GLPX1","DM","GLPX1-108-305","108-305","2024-07-02","2024-12-31","2024-07-02","2024-12-31",null,"2024-12-31",null,null,"108","1970-05-04","54","YEARS","M","WHITE","NOT HISPANIC OR LATINO","GLPX10","GLPX 10 mg","GLPX10","GLPX 10 mg",null,null,"DNK"],["GLPX1","DM","GLPX1-108-306","108-306","2024-06-29","2024-12-28","2024-06-29","2024-12-28",null,"2024-12-28",null,null,"108","1955-11-14","68","YEARS","M","WHITE","NOT HISPANIC OR LATINO","GLPX10","GLPX 10 mg","GLPX10","GLPX 10 mg",null,null,"GBR"],["GLPX1","DM","GLPX1-108-323","108-323","2024-04-17","2024-10-16","2024-04-17","2024-10-16",null,"2024-10-16",null,null,"108","1964-09-25","59","YEARS","F","BLACK OR AFRICAN AMERICAN","NOT HISPANIC OR LATINO","PBO","Placebo","PBO","Placebo",null,null,"GBR"],["GLPX1","DM","GLPX1-108-341","108-341","2024-05-18","2024-11-16","2024-05-18","2024-11-16",null,"2024-11-16",null,null,"108","1972-03-24","52","YEARS","M","WHITE","NOT HISPANIC OR LATINO","PBO","Placebo","PBO","Placebo",null,null,"DEU"],["GLPX1","DM","GLPX1-108-345","108-345","2024-06-29","2024-12-28","2024-06-29","2024-12-28",null,"2024-12-28",null,null,"108","1964-07-14","59","YEARS","F","WHITE","HISPANIC OR LATINO","GLPX10","GLPX 10 mg","GLPX10","GLPX 10 mg",null,null,"DEU"],["GLPX1","DM","GLPX1-108-367","108-367","2024-06-07","2024-12-06","2024-06-07","2024-12-06",null,"2024-12-06",null,null,"108","1956-06-21","67","YEARS","M","OTHER","NOT HISPANIC OR LATINO","GLPX10","GLPX 10 mg","GLPX10","GLPX 10 mg",null,null,"DNK"],["GLPX1","DM","GLPX1-109-011","109-011","2024-06-11","2024-12-10","2024-06-11","2024-12-10",null,"2024-12-10",null,null,"109","1973-04-26","51","YEARS","M","OTHER","HISPANIC OR LATINO","GLPX10","GLPX 10 mg","GLPX10","GLPX 10 mg",null,null,"DNK"],["GLPX1","DM","GLPX1-109-013","109-013","2024-01-30","2024-07-30","2024-01-30","2024-07-30",null,"2024-07-30",null,null,"109","1975-07-09","48","YEARS","M","WHITE","NOT HISPANIC OR LATINO","GLPX10","GLPX 10 mg","GLPX10","GLPX 10 mg",null,null,"DEU"],["GLPX1","DM","GLPX1-109-022","109-022","2024-04-18","2024-10-17","2024-04-18","2024-10-17",null,"2024-10-17",null,null,"109","1981-08-29","42","YEARS","F","WHITE","NOT HISPANIC OR LATINO","GLPX10","GLPX 10 mg","GLPX10","GLPX 10 mg",null,null,"DEU"],["GLPX1","DM","GLPX1-109-047","109-047","2024-04-05","2024-10-04","2024-04-05","2024-10-04",null,"2024-10-04",null,null,"109","1975-05-28","48","YEARS","F","WHITE","NOT HISPANIC OR LATINO","PBO","Placebo","PBO","Placebo",null,null,"DEU"],["GLPX1","DM","GLPX1-109-076","109-076","2024-05-12","2024-11-10","2024-05-12","2024-11-10",null,"2024-11-10",null,null,"109","1970-04-30","54","YEARS","M","WHITE","NOT HISPANIC OR LATINO","GLPX10","GLPX 10 mg","GLPX10","GLPX 10 mg",null,null,"DNK"],["GLPX1","DM","GLPX1-109-087","109-087","2024-02-05","2024-08-05","2024-02-05","2024-08-05",null,"2024-08-05",null,null,"109","1949-02-04","75","YEARS","F","ASIAN","NOT HISPANIC OR LATINO","GLPX10","GLPX 10 mg","GLPX10","GLPX 10 mg",null,null,"ESP"],["GLPX1","DM","GLPX1-109-114","109-114","2024-03-02","2024-08-31","2024-03-02","2024-08-31",null,"2024-08-31",null,null,"109","1944-12-13","79","YEARS","F","BLACK OR AFRICAN AMERICAN","NOT HISPANIC OR LATINO","PBO","Placebo","PBO","Placebo",null,null,"POL"],["GLPX1","DM","GLPX1-109-121","109-121","2024-04-24","2024-10-23","2024-04-24","2024-10-23",null,"2024-10-23",null,null,"109","1948-06-20","75","YEARS","F","WHITE","HISPANIC OR LATINO","PBO","Placebo","PBO","Placebo",null,null,"DNK"],["GLPX1","DM","GLPX1-109-126","109-126","2024-01-23","2024-07-23","2024-01-23","2024-07-23",null,"2024-07-23",null,null,"109","1964-06-06","59","YEARS","M","BLACK OR AFRICAN AMERICAN","NOT HISPANIC OR LATINO","GLPX10","GLPX 10 mg","GLPX10","GLPX 10 mg",null,null,"GBR"],["GLPX1","DM","GLPX1-109-146","109-146","2024-02-03","2024-08-03","2024-02-03","2024-08-03",null,"2024-08-03",null,null,"109","1969-08-09","54","YEARS","F","ASIAN","NOT HISPANIC OR LATINO","PBO","Placebo","PBO","Placebo",null,null,"DEU"],["GLPX1","DM","GLPX1-109-155","109-155","2024-06-10","2024-12-09","2024-06-10","2024-12-09",null,"2024-12-09",null,null,"109","1971-01-10","53","YEARS","M","WHITE","NOT HISPANIC OR LATINO","GLPX10","GLPX 10 mg","GLPX10","GLPX 10 mg",null,null,"DNK"],["GLPX1","DM","GLPX1-109-157","109-157","2024-02-19","2024-08-19","2024-02-19","2024-08-19",null,"2024-08-19",null,null,"109","1955-06-15","68","YEARS","F","ASIAN","NOT HISPANIC OR LATINO","PBO","Placebo","PBO","Placebo",null,null,"ESP"],["GLPX1","DM","GLPX1-109-165","109-165","2024-06-05","2024-12-04","2024-06-05","2024-12-04",null,"2024-12-04",null,null,"109","1964-06-11","59","YEARS","M","WHITE","NOT HISPANIC OR LATINO","PBO","Placebo","PBO","Placebo",null,null,"DEU"],["GLPX1","DM","GLPX1-109-174","109-174","2024-02-11","2024-08-11","2024-02-11","2024-08-11",null,"2024-08-11",null,null,"109","1961-09-13","62","YEARS","F","ASIAN","NOT HISPANIC OR LATINO","PBO","Placebo","PBO","Placebo",null,null,"DEU"],["GLPX1","DM","GLPX1-109-198","109-198","2024-03-11","2024-09-09","2024-03-11","2024-09-09",null,"2024-09-09",null,null,"109","1957-05-17","66","YEARS","F","WHITE","NOT HISPANIC OR LATINO","GLPX10","GLPX 10 mg","GLPX10","GLPX 10 mg",null,null,"ESP"],["GLPX1","DM","GLPX1-109-230","109-230","2024-07-13","2025-01-11","2024-07-13","2025-01-11",null,"2025-01-11",null,null,"109","1974-09-07","49","YEARS","M","ASIAN","NOT HISPANIC OR LATINO","GLPX10","GLPX 10 mg","GLPX10","GLPX 10 mg",null,null,"GBR"],["GLPX1","DM","GLPX1-109-239","109-239","2024-02-02","2024-08-02","2024-02-02","2024-08-02",null,"2024-08-02",null,null,"109","1960-09-07","63","YEARS","M","WHITE","NOT HISPANIC OR LATINO","GLPX10","GLPX 10 mg","GLPX10","GLPX 10 mg",null,null,"POL"],["GLPX1","DM","GLPX1-109-243","109-243","2024-05-12","2024-11-10","2024-05-12","2024-11-10",null,"2024-11-10",null,null,"109","1971-12-19","52","YEARS","M","WHITE","NOT HISPANIC OR LATINO","GLPX10","GLPX 10 mg","GLPX10","GLPX 10 mg",null,null,"DNK"],["GLPX1","DM","GLPX1-109-247","109-247","2024-03-10","2024-09-08","2024-03-10","2024-09-08",null,"2024-09-08",null,null,"109","1962-02-01","62","YEARS","M","WHITE","NOT HISPANIC OR LATINO","GLPX10","GLPX 10 mg","GLPX10","GLPX 10 mg",null,null,"GBR"],["GLPX1","DM","GLPX1-109-263","109-263","2024-02-07","2024-08-07","2024-02-07","2024-08-07",null,"2024-08-07",null,null,"109","1975-06-21","48","YEARS","M","WHITE","NOT HISPANIC OR LATINO","GLPX10","GLPX 10 mg","GLPX10","GLPX 10 mg",null,null,"DEU"],["GLPX1","DM","GLPX1-109-264","109-264","2024-03-02","2024-08-31","2024-03-02","2024-08-31",null,"2024-08-31",null,null,"109","1954-07-26","69","YEARS","F","WHITE","NOT HISPANIC OR LATINO","GLPX10","GLPX 10 mg","GLPX10","GLPX 10 mg",null,null,"ESP"],["GLPX1","DM","GLPX1-109-266","109-266","2024-03-11","2024-09-09","2024-03-11","2024-09-09",null,"2024-09-09",null,null,"109","1960-05-11","63","YEARS","M","WHITE","NOT HISPANIC OR LATINO","PBO","Placebo","PBO","Placebo",null,null,"GBR"],["GLPX1","DM","GLPX1-109-272","109-272","2024-03-27","2024-09-25","2024-03-27","2024-09-25",null,"2024-09-25",null,null,"109","1953-02-10","71","YEARS","F","WHITE","NOT HISPANIC OR LATINO","GLPX10","GLPX 10 mg","GLPX10","GLPX 10 mg",null,null,"DEU"],["GLPX1","DM","GLPX1-109-276","109-276","2024-05-30","2024-11-28","2024-05-30","2024-11-28",null,"2024-11-28",null,null,"109","1973-10-20","50","YEARS","M","ASIAN","NOT HISPANIC OR LATINO","PBO","Placebo","PBO","Placebo",null,null,"DEU"],["GLPX1","DM","GLPX1-109-282","109-282","2024-06-30","2024-12-29","2024-06-30","2024-12-29",null,"2024-12-29",null,null,"109","1963-05-29","61","YEARS","F","WHITE","NOT HISPANIC OR LATINO","PBO","Placebo","PBO","Placebo",null,null,"ESP"],["GLPX1","DM","GLPX1-109-295","109-295","2024-06-20","2024-11-19","2024-06-20","2024-11-19",null,"2024-11-19",null,null,"109","1976-10-13","47","YEARS","M","WHITE","NOT HISPANIC OR LATINO","PBO","Placebo","PBO","Placebo",null,null,"DNK"],["GLPX1","DM","GLPX1-109-302","109-302","2024-04-21","2024-10-20","2024-04-21","2024-10-20",null,"2024-10-20",null,null,"109","1962-08-02","61","YEARS","M","WHITE","NOT HISPANIC OR LATINO","PBO","Placebo","PBO","Placebo",null,null,"DEU"],["GLPX1","DM","GLPX1-109-325","109-325","2024-01-28","2024-07-28","2024-01-28","2024-07-28",null,"2024-07-28",null,null,"109","1976-12-28","47","YEARS","F","ASIAN","NOT HISPANIC OR LATINO","PBO","Placebo","PBO","Placebo",null,null,"DEU"],["GLPX1","DM","GLPX1-109-358","109-358","2024-04-24","2024-10-23","2024-04-24","2024-10-23",null,"2024-10-23",null,null,"109","1959-10-02","64","YEARS","M","WHITE","NOT HISPANIC OR LATINO","PBO","Placebo","PBO","Placebo",null,null,"DEU"],["GLPX1","DM","GLPX1-109-379","109-379","2024-03-13","2024-09-11","2024-03-13","2024-09-11",null,"2024-09-11",null,null,"109","1960-07-09","63","YEARS","M","WHITE","NOT HISPANIC OR LATINO","PBO","Placebo","PBO","Placebo",null,null,"DEU"],["GLPX1","DM","GLPX1-109-393","109-393","2024-07-02","2024-12-31","2024-07-02","2024-12-31",null,"2024-12-31",null,null,"109","1957-12-26","66","YEARS","M","ASIAN","NOT HISPANIC OR LATINO","GLPX10","GLPX 10 mg","GLPX10","GLPX 10 mg",null,null,"GBR"],["GLPX1","DM","GLPX1-110-004","110-004","2024-02-01","2024-08-01","2024-02-01","2024-08-01",null,"2024-08-01",null,null,"110","1970-06-14","53","YEARS","F","WHITE","NOT HISPANIC OR LATINO","GLPX10","GLPX 10 mg","GLPX10","GLPX 10 mg",null,null,"DEU"],["GLPX1","DM","GLPX1-110-018","110-018","2024-06-24","2024-12-23","2024-06-24","2024-12-23",null,"2024-12-23",null,null,"110","1971-10-11","52","YEARS","M","WHITE","NOT HISPANIC OR LATINO","GLPX10","GLPX 10 mg","GLPX10","GLPX 10 mg",null,null,"GBR"],["GLPX1","DM","GLPX1-110-023","110-023","2024-02-10","2024-08-10","2024-02-10","2024-08-10",null,"2024-08-10",null,null,"110","1974-10",null,null,"M","WHITE","NOT HISPANIC OR LATINO","GLPX10","GLPX 10 mg","GLPX10","GLPX 10 mg",null,null,"DNK"],["GLPX1","DM","GLPX1-110-038","110-038","2024-02-27","2024-08-27","2024-02-27","2024-08-27",null,"2024-08-27",null,null,"110","1957-08-31","66","YEARS","M","WHITE","NOT HISPANIC OR LATINO","GLPX10","GLPX 10 mg","GLPX10","GLPX 10 mg",null,null,"POL"],["GLPX1","DM","GLPX1-110-041","110-041","2024-05-14","2024-11-12","2024-05-14","2024-11-12",null,"2024-11-12",null,null,"110","1970-10-28","53","YEARS","F","WHITE","NOT HISPANIC OR LATINO","GLPX10","GLPX 10 mg","GLPX10","GLPX 10 mg",null,null,"POL"],["GLPX1","DM","GLPX1-110-053","110-053","2024-04-12","2024-08-19","2024-04-12","2024-08-19",null,"2024-08-19",null,null,"110","1976-07-02","47","YEARS","F","WHITE","HISPANIC OR LATINO","PBO","Placebo","PBO","Placebo",null,null,"GBR"],["GLPX1","DM","GLPX1-110-081","110-081","2024-05-09","2024-11-07","2024-05-09","2024-11-07",null,"2024-11-07",null,null,"110","1973-09-29","50","YEARS","M","ASIAN","NOT HISPANIC OR LATINO","PBO","Placebo","PBO","Placebo",null,null,"GBR"],["GLPX1","DM","GLPX1-110-093","110-093","2024-04-05","2024-10-04","2024-04-05","2024-10-04",null,"2024-10-04",null,null,"110","1958-01-05","66","YEARS","M","WHITE","NOT HISPANIC OR LATINO","GLPX10","GLPX 10 mg","GLPX10","GLPX 10 mg",null,null,"DNK"],["GLPX1","DM","GLPX1-110-100","110-100","2024-06-08","2024-12-07","2024-06-08","2024-12-07",null,"2024-12-07",null,null,"110","1973-05-12","51","YEARS","F","WHITE","NOT HISPANIC OR LATINO","GLPX10","GLPX 10 mg","GLPX10","GLPX 10 mg",null,null,"GBR"],["GLPX1","DM","GLPX1-110-118","110-118","2024-04-16","2024-10-15","2024-04-16","2024-10-15",null,"2024-10-15",null,null,"110","1954-04-01","70","YEARS","M","WHITE","NOT HISPANIC OR LATINO","GLPX10","GLPX 10 mg","GLPX10","GLPX 10 mg",null,null,"DEU"],["GLPX1","DM","GLPX1-110-122","110-122","2024-02-23","2024-08-23","2024-02-23","2024-08-23",null,"2024-08-23",null,null,"110","1953-04-10","70","YEARS","M","ASIAN","NOT HISPANIC OR LATINO","PBO","Placebo","PBO","Placebo",null,null,"GBR"],["GLPX1","DM","GLPX1-110-135","110-135","2024-06-29","2024-12-28","2024-06-29","2024-12-28",null,"2024-12-28",null,null,"110","1979-09-02","44","YEARS","M","WHITE","NOT HISPANIC OR LATINO","GLPX10","GLPX 10 mg","GLPX10","GLPX 10 mg",null,null,"ESP"],["GLPX1","DM","GLPX1-110-161","110-161","2024-07-12","2025-01-10","2024-07-12","2025-01-10",null,"2025-01-10",null,null,"110","1967-08-17","56","YEARS","F","WHITE","NOT HISPANIC OR LATINO","GLPX10","GLPX 10 mg","GLPX10","GLPX 10 mg",null,null,"GBR"],["GLPX1","DM","GLPX1-110-164","110-164","2024-05-24","2024-11-22","2024-05-24","2024-11-22",null,"2024-11-22",null,null,"110","1964-04-03","60","YEARS","F","BLACK OR AFRICAN AMERICAN","NOT HISPANIC OR LATINO","GLPX10","GLPX 10 mg","GLPX10","GLPX 10 mg",null,null,"DEU"],["GLPX1","DM","GLPX1-110-166","110-166","2024-03-17","2024-09-15","2024-03-17","2024-09-15",null,"2024-09-15",null,null,"110","1961-02-14","63","YEARS","M","ASIAN","NOT HISPANIC OR LATINO","GLPX10","GLPX 10 mg","GLPX10","GLPX 10 mg",null,null,"ESP"],["GLPX1","DM","GLPX1-110-172","110-172","2024-02-09","2024-08-09","2024-02-09","2024-08-09",null,"2024-08-09",null,null,"110","1962-06-21","61","YEARS","F","BLACK OR AFRICAN AMERICAN","NOT HISPANIC OR LATINO","GLPX10","GLPX 10 mg","GLPX10","GLPX 10 mg",null,null,"ESP"],["GLPX1","DM","GLPX1-110-179","110-179","2024-01-18","2024-07-18","2024-01-18","2024-07-18",null,"2024-07-18",null,null,"110","1965-11-25","58","YEARS","F","WHITE","NOT HISPANIC OR LATINO","PBO","Placebo","PBO","Placebo",null,null,"DNK"],["GLPX1","DM","GLPX1-110-180","110-180","2024-02-14","2024-08-14","2024-02-14","2024-08-14",null,"2024-08-14",null,null,"110","1965-03-16","58","YEARS","M","WHITE","NOT HISPANIC OR LATINO","PBO","Placebo","PBO","Placebo",null,null,"DEU"],["GLPX1","DM","GLPX1-110-185","110-185","2024-05-22","2024-11-20","2024-05-22","2024-11-20",null,"2024-11-20",null,null,"110","1960-11-05","63","YEARS","M","ASIAN","NOT HISPANIC OR LATINO","GLPX10","GLPX 10 mg","GLPX10","GLPX 10 mg",null,null,"DEU"],["GLPX1","DM","GLPX1-110-189","110-189","2024-01-31","2024-07-31","2024-01-31","2024-07-31",null,"2024-07-31",null,null,"110","1969-12-12","54","YEARS","M","WHITE","NOT HISPANIC OR LATINO","PBO","Placebo","PBO","Placebo",null,null,"ESP"],["GLPX1","DM","GLPX1-110-191","110-191","2024-05-12","2024-11-10","2024-05-12","2024-11-10",null,"2024-11-10",null,null,"110","1962-04-19","62","YEARS","M","OTHER","NOT HISPANIC OR LATINO","GLPX10","GLPX 10 mg","GLPX10","GLPX 10 mg",null,null,"ESP"],["GLPX1","DM","GLPX1-110-193","110-193","2024-03-29","2024-09-27","2024-03-29","2024-09-27",null,"2024-09-27",null,null,"110","1978-12-16","45","YEARS","F","WHITE","NOT HISPANIC OR LATINO","PBO","Placebo","PBO","Placebo",null,null,"DEU"],["GLPX1","DM","GLPX1-110-205","110-205","2024-02-13","2024-08-13","2024-02-13","2024-08-13",null,"2024-08-13",null,null,"110","1973-04-16","50","YEARS","F","WHITE","NOT HISPANIC OR LATINO","GLPX10","GLPX 10 mg","GLPX10","GLPX 10 mg",null,null,"POL"],["GLPX1","DM","GLPX1-110-208","110-208","2024-02-29","2024-08-29","2024-02-29","2024-08-29",null,"2024-08-29",null,null,"110","1971-01-15","53","YEARS","M","ASIAN","NOT HISPANIC OR LATINO","GLPX10","GLPX 10 mg","GLPX10","GLPX 10 mg",null,null,"DNK"],["GLPX1","DM","GLPX1-110-212","110-212","2024-02-24","2024-08-24","2024-02-24","2024-08-24",null,"2024-08-24",null,null,"110","1968-06-14","55","YEARS","F","ASIAN","NOT HISPANIC OR LATINO","GLPX10","GLPX 10 mg","GLPX10","GLPX 10 mg",null,null,"GBR"],["GLPX1","DM","GLPX1-110-215","110-215","2024-06-16","2024-12-15","2024-06-16","2024-12-15",null,"2024-12-15",null,null,"110","1979-08-16","44","YEARS","M","WHITE","NOT HISPANIC OR LATINO","GLPX10","GLPX 10 mg","GLPX10","GLPX 10 mg",null,null,"ESP"],["GLPX1","DM","GLPX1-110-234","110-234","2024-03-31","2024-09-29","2024-03-31","2024-09-29",null,"2024-09-29",null,null,"110","1973-03-03","51","YEARS","M","WHITE","NOT HISPANIC OR LATINO","GLPX10","GLPX 10 mg","GLPX10","GLPX 10 mg",null,null,"POL"],["GLPX1","DM","GLPX1-110-241","110-241","2024-02-29","2024-08-29","2024-02-29","2024-08-29",null,"2024-08-29",null,null,"110","1955-06-05","68","YEARS","F","WHITE","NOT HISPANIC OR LATINO","GLPX10","GLPX 10 mg","GLPX10","GLPX 10 mg",null,null,"DEU"],["GLPX1","DM","GLPX1-110-253","110-253","2024-06-14","2024-12-13","2024-06-14","2024-12-13",null,"2024-12-13",null,null,"110","1963-11-06","60","YEARS","F","WHITE","NOT HISPANIC OR LATINO","GLPX10","GLPX 10 mg","GLPX10","GLPX 10 mg",null,null,"GBR"],["GLPX1","DM","GLPX1-110-287","110-287","2024-01-17","2024-07-17","2024-01-17","2024-07-17",null,"2024-07-17",null,null,"110","1973-06-23","50","YEARS","F","WHITE","NOT HISPANIC OR LATINO","PBO","Placebo","PBO","Placebo",null,null,"DEU"],["GLPX1","DM","GLPX1-110-289","110-289","2024-03-01","2024-08-30","2024-03-01","2024-08-30",null,"2024-08-30",null,null,"110","1965-06-26","58","YEARS","M","WHITE","NOT HISPANIC OR LATINO","GLPX10","GLPX 10 mg","GLPX10","GLPX 10 mg",null,null,"DNK"],["GLPX1","DM","GLPX1-110-291","110-291","2024-06-10","2024-12-09","2024-06-10","2024-12-09",null,"2024-12-09",null,null,"110","1967-10-24","56","YEARS","F","WHITE","NOT HISPANIC OR LATINO","PBO","Placebo","PBO","Placebo",null,null,"DNK"],["GLPX1","DM","GLPX1-110-300","110-300","2024-06-15","2024-12-14","2024-06-15","2024-12-14",null,"2024-12-14",null,null,"110","1973-10-24","50","YEARS","F","WHITE","HISPANIC OR LATINO","GLPX10","GLPX 10 mg","GLPX10","GLPX 10 mg",null,null,"POL"],["GLPX1","DM","GLPX1-110-326","110-326","2024-02-28","2024-08-28","2024-02-28","2024-08-28",null,"2024-08-28",null,null,"110","1972-08-17","51","YEARS","M","ASIAN","NOT HISPANIC OR LATINO","GLPX10","GLPX 10 mg","GLPX10","GLPX 10 mg",null,null,"GBR"],["GLPX1","DM","GLPX1-110-365","110-365","2024-05-28","2024-11-26","2024-05-28","2024-11-26",null,"2024-11-26",null,null,"110","1950-07-18","73","YEARS","F","BLACK OR AFRICAN AMERICAN","NOT HISPANIC OR LATINO","GLPX10","GLPX 10 mg","GLPX10","GLPX 10 mg",null,null,"DEU"],["GLPX1","DM","GLPX1-111-003","111-003","2024-06-08","2024-12-07","2024-06-08","2024-12-07",null,"2024-12-07",null,null,"111","1964-07-15","59","YEARS","F","WHITE","NOT HISPANIC OR LATINO","PBO","Placebo","PBO","Placebo",null,null,"GBR"],["GLPX1","DM","GLPX1-111-031","111-031","2024-06-26","2024-12-25","2024-06-26","2024-12-25",null,"2024-12-25",null,null,"111","1955-09-09","68","YEARS","M","WHITE","NOT HISPANIC OR LATINO","GLPX10","GLPX 10 mg","GLPX10","GLPX 10 mg",null,null,"DEU"],["GLPX1","DM","GLPX1-111-050","111-050","2024-01-29","2024-07-29","2024-01-29","2024-07-29",null,"2024-07-29",null,null,"111","1970-02-10","53","YEARS","F","WHITE","NOT HISPANIC OR LATINO","PBO","Placebo","PBO","Placebo",null,null,"DEU"],["GLPX1","DM","GLPX1-111-057","111-057","2024-03-27","2024-09-25","2024-03-27","2024-09-25",null,"2024-09-25",null,null,"111","1969",null,null,"F","WHITE","NOT HISPANIC OR LATINO","PBO","Placebo","PBO","Placebo",null,null,"DEU"],["GLPX1","DM","GLPX1-111-066","111-066","2024-05-17","2024-11-15","2024-05-17","2024-11-15",null,"2024-11-15",null,null,"111","1980-07-11","43","YEARS","M","WHITE","NOT HISPANIC OR LATINO","PBO","Placebo","PBO","Placebo",null,null,"POL"],["GLPX1","DM","GLPX1-111-085","111-085","2024-03-21","2024-09-19","2024-03-21","2024-09-19",null,"2024-09-19",null,null,"111","1964-05-11","59","YEARS","M","WHITE","NOT HISPANIC OR LATINO","PBO","Placebo","PBO","Placebo",null,null,"DEU"],["GLPX1","DM","GLPX1-111-101","111-101","2024-01-25","2024-07-25","2024-01-25","2024-07-25",null,"2024-07-25",null,null,"111","1961-04-09","62","YEARS","M","ASIAN","NOT HISPANIC OR LATINO","GLPX10","GLPX 10 mg","GLPX10","GLPX 10 mg",null,null,"POL"],["GLPX1","DM","GLPX1-111-119","111-119","2024-06-23","2024-12-22","2024-06-23","2024-12-22",null,"2024-12-22",null,null,"111","1958-05-02","66","YEARS","F","WHITE","NOT HISPANIC OR LATINO","GLPX10","GLPX 10 mg","GLPX10","GLPX 10 mg",null,null,"ESP"],["GLPX1","DM","GLPX1-111-131","111-131","2024-03-19","2024-05-18","2024-03-19","2024-05-18",null,"2024-05-18",null,null,"111","1971-09-04","52","YEARS","F","BLACK OR AFRICAN AMERICAN","NOT HISPANIC OR LATINO","GLPX10","GLPX 10 mg","GLPX10","GLPX 10 mg",null,null,"DNK"],["GLPX1","DM","GLPX1-111-138","111-138","2024-05-17","2024-11-15","2024-05-17","2024-11-15",null,"2024-11-15",null,null,"111","1961-01-19","63","YEARS","F","WHITE","HISPANIC OR LATINO","PBO","Placebo","PBO","Placebo",null,null,"GBR"],["GLPX1","DM","GLPX1-111-140","111-140","2024-02-24","2024-08-24","2024-02-24","2024-08-24",null,"2024-08-24",null,null,"111","1962-07-15","61","YEARS","F","WHITE","NOT HISPANIC OR LATINO","GLPX10","GLPX 10 mg","GLPX10","GLPX 10 mg",null,null,"DEU"],["GLPX1","DM","GLPX1-111-143","111-143","2024-04-22","2024-10-21","2024-04-22","2024-10-21",null,"2024-10-21",null,null,"111","1979-01-23","45","YEARS","M","WHITE","NOT HISPANIC OR LATINO","PBO","Placebo","PBO","Placebo",null,null,"ESP"],["GLPX1","DM","GLPX1-111-160","111-160","2024-06-05","2024-12-04","2024-06-05","2024-12-04",null,"2024-12-04",null,null,"111","1965-12-20","58","YEARS","F","WHITE","NOT HISPANIC OR LATINO","GLPX10","GLPX 10 mg","GLPX10","GLPX 10 mg",null,null,"GBR"],["GLPX1","DM","GLPX1-111-178","111-178","2024-03-14","2024-09-12","2024-03-14","2024-09-12",null,"2024-09-12",null,null,"111","1968-11-06","55","YEARS","M","BLACK OR AFRICAN AMERICAN","NOT HISPANIC OR LATINO","PBO","Placebo","PBO","Placebo",null,null,"POL"],["GLPX1","DM","GLPX1-111-187","111-187","2024-03-12","2024-09-10","2024-03-12","2024-09-10",null,"2024-09-10",null,null,"111","1969-09-17","54","YEARS","M","WHITE","NOT HISPANIC OR LATINO","GLPX10","GLPX 10 mg","GLPX10","GLPX 10 mg",null,null,"DEU"],["GLPX1","DM","GLPX1-111-210","111-210","2024-05-06","2024-11-04","2024-05-06","2024-11-04",null,"2024-11-04",null,null,"111","1968-09-26","55","YEARS","M","BLACK OR AFRICAN AMERICAN","NOT HISPANIC OR LATINO","PBO","Placebo","PBO","Placebo",null,null,"DEU"],["GLPX1","DM","GLPX1-111-214","111-214","2024-03-18","2024-09-16","2024-03-18","2024-09-16",null,"2024-09-16",null,null,"111","1942-05-26","81","YEARS","F","OTHER","NOT HISPANIC OR LATINO","PBO","Placebo","PBO","Placebo",null,null,"DNK"],["GLPX1","DM","GLPX1-111-216","111-216","2024-06-07","2024-12-06","2024-06-07","2024-12-06",null,"2024-12-06",null,null,"111","1957-08-07","66","YEARS","F","WHITE","NOT HISPANIC OR LATINO","PBO","Placebo","PBO","Placebo",null,null,"DEU"],["GLPX1","DM","GLPX1-111-228","111-228","2024-02-06","2024-08-06","2024-02-06","2024-08-06",null,"2024-08-06",null,null,"111","1953-09-09","70","YEARS","F","WHITE","NOT HISPANIC OR LATINO","PBO","Placebo","PBO","Placebo",null,null,"ESP"],["GLPX1","DM","GLPX1-111-232","111-232","2024-03-10","2024-09-08","2024-03-10","2024-09-08",null,"2024-09-08",null,null,"111","1956-11-22","67","YEARS","F","ASIAN","NOT HISPANIC OR LATINO","PBO","Placebo","PBO","Placebo",null,null,"DEU"],["GLPX1","DM","GLPX1-111-233","111-233","2024-06-20","2024-12-19","2024-06-20","2024-12-19",null,"2024-12-19",null,null,"111","1966-12-15","57","YEARS","M","WHITE","NOT HISPANIC OR LATINO","PBO","Placebo","PBO","Placebo",null,null,"POL"],["GLPX1","DM","GLPX1-111-238","111-238","2024-01-30","2024-07-30","2024-01-30","2024-07-30",null,"2024-07-30",null,null,"111","1960-08-16","63","YEARS","M","WHITE","NOT HISPANIC OR LATINO","PBO","Placebo","PBO","Placebo",null,null,"GBR"],["GLPX1","DM","GLPX1-111-240","111-240","2024-05-15","2024-11-13","2024-05-15","2024-11-13",null,"2024-11-13",null,null,"111","1976-03-09","48","YEARS","F","WHITE","NOT HISPANIC OR LATINO","GLPX10","GLPX 10 mg","GLPX10","GLPX 10 mg",null,null,"DNK"],["GLPX1","DM","GLPX1-111-269","111-269","2024-04-18","2024-10-17","2024-04-18","2024-10-17",null,"2024-10-17",null,null,"111","1968-03-30","56","YEARS","M","WHITE","NOT HISPANIC OR LATINO","PBO","Placebo","PBO","Placebo",null,null,"GBR"],["GLPX1","DM","GLPX1-111-301","111-301","2024-01-30","2024-07-30","2024-01-30","2024-07-30",null,"2024-07-30",null,null,"111","1969-11-02","54","YEARS","F","BLACK OR AFRICAN AMERICAN","NOT HISPANIC OR LATINO","GLPX10","GLPX 10 mg","GLPX10","GLPX 10 mg",null,null,"DEU"],["GLPX1","DM","GLPX1-111-303","111-303","2024-04-15","2024-06-28","2024-04-15","2024-06-28",null,"2024-06-28",null,null,"111","1968-04-27","55","YEARS","M","WHITE","NOT HISPANIC OR LATINO","PBO","Placebo","PBO","Placebo",null,null,"GBR"],["GLPX1","DM","GLPX1-111-318","111-318","2024-04-07","2024-10-06","2024-04-07","2024-10-06",null,"2024-10-06",null,null,"111","1967-08-06","56","YEARS","F","ASIAN","NOT HISPANIC OR LATINO","PBO","Placebo","PBO","Placebo",null,null,"DEU"],["GLPX1","DM","GLPX1-111-342","111-342","2024-03-24","2024-09-22","2024-03-24","2024-09-22",null,"2024-09-22",null,null,"111","1946-08-01","77","YEARS","M","WHITE","NOT HISPANIC OR LATINO","PBO","Placebo","PBO","Placebo",null,null,"DEU"],["GLPX1","DM","GLPX1-111-346","111-346","2024-06-29","2024-12-28","2024-06-29","2024-12-28",null,"2024-12-28",null,null,"111","1958-03-16","66","YEARS","F","WHITE","NOT HISPANIC OR LATINO","GLPX10","GLPX 10 mg","GLPX10","GLPX 10 mg",null,null,"GBR"],["GLPX1","DM","GLPX1-111-349","111-349","2024-02-21","2024-08-21","2024-02-21","2024-08-21",null,"2024-08-21",null,null,"111","1962-05-24","61","YEARS","F","WHITE","NOT HISPANIC OR LATINO","PBO","Placebo","PBO","Placebo",null,null,"ESP"],["GLPX1","DM","GLPX1-111-353","111-353","2024-01-17","2024-07-17","2024-01-17","2024-07-17",null,"2024-07-17",null,null,"111","1956-09-30","67","YEARS","M","WHITE","NOT HISPANIC OR LATINO","PBO","Placebo","PBO","Placebo",null,null,"ESP"],["GLPX1","DM","GLPX1-111-354","111-354","2024-02-27","2024-08-27","2024-02-27","2024-08-27",null,"2024-08-27",null,null,"111","1952-03-05","71","YEARS","M","WHITE","NOT HISPANIC OR LATINO","GLPX10","GLPX 10 mg","GLPX10","GLPX 10 mg",null,null,"GBR"],["GLPX1","DM","GLPX1-111-356","111-356","2024-02-21","2024-08-21","2024-02-21","2024-08-21",null,"2024-08-21",null,null,"111","1967-11-30","56","YEARS","M","WHITE","NOT HISPANIC OR LATINO","GLPX10","GLPX 10 mg","GLPX10","GLPX 10 mg",null,null,"GBR"],["GLPX1","DM","GLPX1-111-391","111-391","2024-04-19","2024-10-18","2024-04-19","2024-10-18",null,"2024-10-18",null,null,"111","1975-07-21","48","YEARS","M","WHITE","NOT HISPANIC OR LATINO","PBO","Placebo","PBO","Placebo",null,null,"GBR"],["GLPX1","DM","GLPX1-111-396","111-396","2024-06-10","2024-12-09","2024-06-10","2024-12-09",null,"2024-12-09",null,null,"111","1978-01-17","46","YEARS","F","WHITE","NOT HISPANIC OR LATINO","PBO","Placebo","PBO","Placebo",null,null,"DEU"],["GLPX1","DM","GLPX1-111-398","111-398","2024-03-04","2024-09-02","2024-03-04","2024-09-02",null,"2024-09-02",null,null,"111","1969-02-09","55","YEARS","F","WHITE","NOT HISPANIC OR LATINO","GLPX10","GLPX 10 mg","GLPX10","GLPX 10 mg",null,null,"DNK"],["GLPX1","DM","GLPX1-112-002","112-002","2024-06-05","2024-07-22","2024-06-05","2024-07-22",null,"2024-07-22",null,null,"112","1959-04-07","65","YEARS","M","ASIAN","NOT HISPANIC OR LATINO","GLPX10","GLPX 10 mg","GLPX10","GLPX 10 mg",null,null,"POL"],["GLPX1","DM","GLPX1-112-017","112-017","2024-01-30","2024-07-30","2024-01-30","2024-07-30",null,"2024-07-30",null,null,"112","1966-03-06","57","YEARS","F","BLACK OR AFRICAN AMERICAN","HISPANIC OR LATINO","GLPX10","GLPX 10 mg","GLPX10","GLPX 10 mg",null,null,"DEU"],["GLPX1","DM","GLPX1-112-042","112-042","2024-05-15","2024-11-13","2024-05-15","2024-11-13",null,"2024-11-13",null,null,"112","1972-10-16","51","YEARS","M","BLACK OR AFRICAN AMERICAN","NOT HISPANIC OR LATINO","PBO","Placebo","PBO","Placebo",null,null,"DNK"],["GLPX1","DM","GLPX1-112-044","112-044","2024-03-12","2024-09-10","2024-03-12","2024-09-10",null,"2024-09-10",null,null,"112","1950-05-16","73","YEARS","F","WHITE","NOT HISPANIC OR LATINO","GLPX10","GLPX 10 mg","GLPX10","GLPX 10 mg",null,null,"POL"],["GLPX1","DM","GLPX1-112-049","112-049","2024-02-02","2024-08-02","2024-02-02","2024-08-02",null,"2024-08-02",null,null,"112","1962-10-28","61","YEARS","F","ASIAN","NOT HISPANIC OR LATINO","GLPX10","GLPX 10 mg","GLPX10","GLPX 10 mg",null,null,"DEU"],["GLPX1","DM","GLPX1-112-059","112-059","2024-04-08","2024-10-07","2024-04-08","2024-10-07",null,"2024-10-07",null,null,"112","1940-10-26","83","YEARS","M","WHITE","NOT HISPANIC OR LATINO","PBO","Placebo","PBO","Placebo",null,null,"POL"],["GLPX1","DM","GLPX1-112-060","112-060","2024-06-05","2024-12-04","2024-06-05","2024-12-04",null,"2024-12-04",null,null,"112","1965-01-02","59","YEARS","M","WHITE","NOT HISPANIC OR LATINO","PBO","Placebo","PBO","Placebo",null,null,"DEU"],["GLPX1","DM","GLPX1-112-062","112-062","2024-03-16","2024-09-14","2024-03-16","2024-09-14",null,"2024-09-14",null,null,"112","1972-02-07","52","YEARS","M","WHITE","NOT HISPANIC OR LATINO","PBO","Placebo","PBO","Placebo",null,null,"ESP"],["GLPX1","DM","GLPX1-112-065","112-065","2024-05-16","2024-11-14","2024-05-16","2024-11-14",null,"2024-11-14",null,null,"112","1968-06-04","55","YEARS","M","WHITE","NOT HISPANIC OR LATINO","PBO","Placebo","PBO","Placebo",null,null,"ESP"],["GLPX1","DM","GLPX1-112-069","112-069","2024-05-15","2024-10-03","2024-05-15","2024-10-03",null,"2024-10-03",null,null,"112","1968-05-29","55","YEARS","M","WHITE","NOT HISPANIC OR LATINO","GLPX10","GLPX 10 mg","GLPX10","GLPX 10 mg",null,null,"DNK"],["GLPX1","DM","GLPX1-112-080","112-080","2024-01-28","2024-07-28","2024-01-28","2024-07-28",null,"2024-07-28",null,null,"112","1951-08-08","72","YEARS","F","WHITE","NOT HISPANIC OR LATINO","PBO","Placebo","PBO","Placebo",null,null,"DNK"],["GLPX1","DM","GLPX1-112-086","112-086","2024-06-20","2024-12-19","2024-06-20","2024-12-19",null,"2024-12-19",null,null,"112","1964-04-18","60","YEARS","M","ASIAN","NOT HISPANIC OR LATINO","GLPX10","GLPX 10 mg","GLPX10","GLPX 10 mg",null,null,"DNK"],["GLPX1","DM","GLPX1-112-107","112-107","2024-04-12","2024-10-11","2024-04-12","2024-10-11",null,"2024-10-11",null,null,"112","1973-12-05","50","YEARS","F","BLACK OR AFRICAN AMERICAN","NOT HISPANIC OR LATINO","PBO","Placebo","PBO","Placebo",null,null,"DEU"],["GLPX1","DM","GLPX1-112-113","112-113","2024-06-05","2024-12-04","2024-06-05","2024-12-04",null,"2024-12-04",null,null,"112","1957-09-05","66","YEARS","M","WHITE","NOT HISPANIC OR LATINO","GLPX10","GLPX 10 mg","GLPX10","GLPX 10 mg",null,null,"DEU"],["GLPX1","DM","GLPX1-112-128","112-128","2024-03-25","2024-09-23","2024-03-25","2024-09-23",null,"2024-09-23",null,null,"112","1966-05-01","57","YEARS","F","WHITE","NOT HISPANIC OR LATINO","GLPX10","GLPX 10 mg","GLPX10","GLPX 10 mg",null,null,"DEU"],["GLPX1","DM","GLPX1-112-136","112-136","2024-05-12","2024-11-10","2024-05-12","2024-11-10",null,"2024-11-10",null,null,"112","1973-06-10","50","YEARS","M","WHITE","NOT HISPANIC OR LATINO","PBO","Placebo","PBO","Placebo",null,null,"DEU"],["GLPX1","DM","GLPX1-112-137","112-137","2024-06-05","2024-12-04","2024-06-05","2024-12-04",null,"2024-12-04",null,null,"112","1966-07-28","57","YEARS","F","WHITE","NOT HISPANIC OR LATINO","PBO","Placebo","PBO","Placebo",null,null,"GBR"],["GLPX1","DM","GLPX1-112-142","112-142","2024-01-31","2024-07-31","2024-01-31","2024-07-31",null,"2024-07-31",null,null,"112","1960-05-01","63","YEARS","F","ASIAN","NOT HISPANIC OR LATINO","GLPX10","GLPX 10 mg","GLPX10","GLPX 10 mg",null,null,"DEU"],["GLPX1","DM","GLPX1-112-158","112-158","2024-06-19","2024-12-18","2024-06-19","2024-12-18",null,"2024-12-18",null,null,"112","1983-06-15","41","YEARS","F","WHITE","NOT HISPANIC OR LATINO","PBO","Placebo","PBO","Placebo",null,null,"DEU"],["GLPX1","DM","GLPX1-112-169","112-169","2024-04-02","2024-10-01","2024-04-02","2024-10-01",null,"2024-10-01",null,null,"112","1964-06-29","59","YEARS","F","WHITE","NOT HISPANIC OR LATINO","PBO","Placebo","PBO","Placebo",null,null,"DNK"],["GLPX1","DM","GLPX1-112-175","112-175","2024-03-17","2024-09-15","2024-03-17","2024-09-15",null,"2024-09-15",null,null,"112","1974-03-09","50","YEARS","M","ASIAN","NOT HISPANIC OR LATINO","GLPX10","GLPX 10 mg","GLPX10","GLPX 10 mg",null,null,"POL"],["GLPX1","DM","GLPX1-112-183","112-183","2024-02-05","2024-08-05","2024-02-05","2024-08-05",null,"2024-08-05",null,null,"112","1954-05-21","69","YEARS","F","WHITE","NOT HISPANIC OR LATINO","GLPX10","GLPX 10 mg","GLPX10","GLPX 10 mg",null,null,"DEU"],["GLPX1","DM","GLPX1-112-190","112-190","2024-04-19","2024-10-18","2024-04-19","2024-10-18",null,"2024-10-18",null,null,"112","1948-09-03","75","YEARS","F","WHITE","NOT HISPANIC OR LATINO","PBO","Placebo","PBO","Placebo",null,null,"GBR"],["GLPX1","DM","GLPX1-112-197","112-197","2024-07-01","2024-12-30","2024-07-01","2024-12-30",null,"2024-12-30",null,null,"112","1969-04-05","55","YEARS","F","WHITE","NOT HISPANIC OR LATINO","GLPX10","GLPX 10 mg","GLPX10","GLPX 10 mg",null,null,"DNK"],["GLPX1","DM","GLPX1-112-201","112-201","2024-02-21","2024-08-21","2024-02-21","2024-08-21",null,"2024-08-21",null,null,"112","1972-02-02","52","YEARS","F","WHITE","NOT HISPANIC OR LATINO","GLPX10","GLPX 10 mg","GLPX10","GLPX 10 mg",null,null,"DNK"],["GLPX1","DM","GLPX1-112-225","112-225","2024-03-26","2024-09-24","2024-03-26","2024-09-24",null,"2024-09-24",null,null,"112","1958-01-28","66","YEARS","F","WHITE","NOT HISPANIC OR LATINO","PBO","Placebo","PBO","Placebo",null,null,"GBR"],["GLPX1","DM","GLPX1-112-249","112-249","2024-06-07","2024-12-06","2024-06-07","2024-12-06",null,"2024-12-06",null,null,"112","1962-03-09","62","YEARS","F","WHITE","HISPANIC OR LATINO","GLPX10","GLPX 10 mg","GLPX10","GLPX 10 mg",null,null,"POL"],["GLPX1","DM","GLPX1-112-257","112-257","2024-02-06","2024-08-06","2024-02-06","2024-08-06",null,"2024-08-06",null,null,"112","1974-10-16","49","YEARS","F","WHITE","NOT HISPANIC OR LATINO","GLPX10","GLPX 10 mg","GLPX10","GLPX 10 mg",null,null,"GBR"],["GLPX1","DM","GLPX1-112-261","112-261","2024-01-18","2024-07-18","2024-01-18","2024-07-18",null,"2024-07-18",null,null,"112","1968-10-05","55","YEARS","F","BLACK OR AFRICAN AMERICAN","NOT HISPANIC OR LATINO","PBO","Placebo","PBO","Placebo",null,null,"GBR"],["GLPX1","DM","GLPX1-112-265","112-265","2024-06-13","2024-12-12","2024-06-13","2024-12-12",null,"2024-12-12",null,null,"112","1957-04-28","67","YEARS","M","WHITE","NOT HISPANIC OR LATINO","PBO","Placebo","PBO","Placebo",null,null,"GBR"],["GLPX1","DM","GLPX1-112-273","112-273","2024-02-19","2024-08-19","2024-02-19","2024-08-19",null,"2024-08-19",null,null,"112","1939-04-22","84","YEARS","M","WHITE","NOT HISPANIC OR LATINO","PBO","Placebo","PBO","Placebo",null,null,"DNK"],["GLPX1","DM","GLPX1-112-310","112-310","2024-06-21","2024-12-20","2024-06-21","2024-12-20",null,"2024-12-20",null,null,"112","1974-12-01","49","YEARS","F","WHITE","NOT HISPANIC OR LATINO","PBO","Placebo","PBO","Placebo",null,null,"POL"],["GLPX1","DM","GLPX1-112-343","112-343","2024-03-26","2024-09-24","2024-03-26","2024-09-24",null,"2024-09-24",null,null,"112","1970-02-16","54","YEARS","M","WHITE","NOT HISPANIC OR LATINO","GLPX10","GLPX 10 mg","GLPX10","GLPX 10 mg",null,null,"DNK"],["GLPX1","DM","GLPX1-112-344","112-344","2024-01-17","2024-07-17","2024-01-17","2024-07-17",null,"2024-07-17",null,null,"112","1965-04-02","58","YEARS","M","ASIAN","NOT HISPANIC OR LATINO","PBO","Placebo","PBO","Placebo",null,null,"ESP"],["GLPX1","DM","GLPX1-112-350","112-350","2024-02-05","2024-03-16","2024-02-05","2024-03-16",null,"2024-03-16",null,null,"112","1967-03-02","56","YEARS","F","ASIAN","HISPANIC OR LATINO","PBO","Placebo","PBO","Placebo",null,null,"DEU"],["GLPX1","DM","GLPX1-112-351","112-351","2024-02-08","2024-08-08","2024-02-08","2024-08-08",null,"2024-08-08",null,null,"112","1976-02-29","47","YEARS","F","BLACK OR AFRICAN AMERICAN","HISPANIC OR LATINO","GLPX10","GLPX 10 mg","GLPX10","GLPX 10 mg",null,null,"ESP"],["GLPX1","DM","GLPX1-112-362","112-362","2024-06-28","2024-12-27","2024-06-28","2024-12-27",null,"2024-12-27",null,null,"112","1973-03-24","51","YEARS","F","OTHER","HISPANIC OR LATINO","PBO","Placebo","PBO","Placebo",null,null,"GBR"],["GLPX1","DM","GLPX1-112-368","112-368","2024-04-02","2024-10-01","2024-04-02","2024-10-01",null,"2024-10-01",null,null,"112","1968-01-22","56","YEARS","F","WHITE","NOT HISPANIC OR LATINO","PBO","Placebo","PBO","Placebo",null,null,"GBR"],["GLPX1","DM","GLPX1-112-370","112-370","2024-06-11","2024-12-10","2024-06-11","2024-12-10",null,"2024-12-10",null,null,"112","1971-09-11","52","YEARS","M","WHITE","NOT HISPANIC OR LATINO","PBO","Placebo","PBO","Placebo",null,null,"POL"],["GLPX1","DM","GLPX1-112-373","112-373","2024-01-16","2024-07-16","2024-01-16","2024-07-16",null,"2024-07-16",null,null,"112","1960-10-01","63","YEARS","M","WHITE","NOT HISPANIC OR LATINO","GLPX10","GLPX 10 mg","GLPX10","GLPX 10 mg",null,null,"DNK"]]}