{"datasetJSONCreationDateTime":"2026-09-06T15:28:04","datasetJSONVersion":"1.1.0","fileOID":"GLPX1.lb","dbLastModifiedDateTime":"2026-09-06T00:00:00","originator":"CDISC with R course","sourceSystem":{"name":"R","version":"4.4.0"},"studyOID":"GLPX1","metaDataVersionOID":"MDV.GLPX1.SDTMIG.3.4","metaDataRef":"define.xml","itemGroupOID":"IG.LB","records":12388,"name":"LB","label":"Laboratory Test Results","columns":[{"itemOID":"IT.LB.STUDYID","name":"STUDYID","label":"Study Identifier","dataType":"string","length":5},{"itemOID":"IT.LB.DOMAIN","name":"DOMAIN","label":"Domain Abbreviation","dataType":"string","length":2},{"itemOID":"IT.LB.USUBJID","name":"USUBJID","label":"Unique Subject Identifier","dataType":"string","length":13},{"itemOID":"IT.LB.LBSEQ","name":"LBSEQ","label":"Sequence Number","dataType":"string","length":2},{"itemOID":"IT.LB.LBTESTCD","name":"LBTESTCD","label":"Lab Test or Examination Short Name","dataType":"string","length":5},{"itemOID":"IT.LB.LBTEST","name":"LBTEST","label":"Lab Test or Examination Name","dataType":"string","length":24},{"itemOID":"IT.LB.LBORRES","name":"LBORRES","label":"Result or Finding in Original Units","dataType":"string","length":4},{"itemOID":"IT.LB.LBORRESU","name":"LBORRESU","label":"Original Units","dataType":"string","length":6},{"itemOID":"IT.LB.LBSTRESC","name":"LBSTRESC","label":"Character Result/Finding in Std Format","dataType":"string","length":4},{"itemOID":"IT.LB.LBSTRESN","name":"LBSTRESN","label":"Numeric Result/Finding in Standard Units","dataType":"float","length":4},{"itemOID":"IT.LB.LBSTRESU","name":"LBSTRESU","label":"Standard Units","dataType":"string","length":6},{"itemOID":"IT.LB.LBORNRLO","name":"LBORNRLO","label":"Reference Range Lower Limit in Orig Unit","dataType":"float","length":3},{"itemOID":"IT.LB.LBORNRHI","name":"LBORNRHI","label":"Reference Range Upper Limit in Orig Unit","dataType":"float","length":3},{"itemOID":"IT.LB.LBSTNRLO","name":"LBSTNRLO","label":"Reference Range Lower Limit-Std Units","dataType":"float","length":3},{"itemOID":"IT.LB.LBSTNRHI","name":"LBSTNRHI","label":"Reference Range Upper Limit-Std Units","dataType":"float","length":3},{"itemOID":"IT.LB.LBNRIND","name":"LBNRIND","label":"Reference Range Indicator","dataType":"string","length":6},{"itemOID":"IT.LB.LBDRVFL","name":"LBDRVFL","label":"Derived Flag","dataType":"string","length":1},{"itemOID":"IT.LB.LBLOBXFL","name":"LBLOBXFL","label":"Last Observation Before Exposure Flag","dataType":"string","length":1},{"itemOID":"IT.LB.VISITNUM","name":"VISITNUM","label":"Visit Number","dataType":"string","length":1},{"itemOID":"IT.LB.VISIT","name":"VISIT","label":"Visit Name","dataType":"string","length":9},{"itemOID":"IT.LB.LBDTC","name":"LBDTC","label":"Date/Time of Specimen Collection","dataType":"string","length":10},{"itemOID":"IT.LB.LBDY","name":"LBDY","label":"Study Day of Specimen Collection","dataType":"string","length":3}],"rows":[["GLPX1","LB","GLPX1-101-010","1","HBA1C","Hemoglobin A1C","8.2","%","8.2",8.2,"%",4.0,5.6,4.0,5.6,"HIGH",null,"Y","1","SCREENING","2024-03-12","-16"],["GLPX1","LB","GLPX1-101-010","2","CREAT","Creatinine","73","umol/L","73",73.0,"umol/L",62.0,106.0,62.0,106.0,"NORMAL",null,"Y","1","SCREENING","2024-03-14","-14"],["GLPX1","LB","GLPX1-101-010","3","GLUC","Glucose","11.3","mmol/L","11.3",11.3,"mmol/L",3.9,5.6,3.9,5.6,"HIGH",null,null,"1","SCREENING","2024-03-14","-14"],["GLPX1","LB","GLPX1-101-010","4","ALT","Alanine Aminotransferase","39","U/L","39",39.0,"U/L",10.0,40.0,10.0,40.0,"NORMAL",null,"Y","1","SCREENING","2024-03-16","-12"],["GLPX1","LB","GLPX1-101-010","5","GLUC","Glucose","8","mmol/L","8",8.0,"mmol/L",3.9,5.6,3.9,5.6,"HIGH",null,"Y","2","BASELINE","2024-03-27","-1"],["GLPX1","LB","GLPX1-101-010","6","HBA1C","Hemoglobin A1C","8.6","%","8.6",8.6,"%",4.0,5.6,4.0,5.6,"HIGH",null,null,"2","BASELINE","2024-03-28","1"],["GLPX1","LB","GLPX1-101-010","7","ALT","Alanine Aminotransferase","25","U/L","25",25.0,"U/L",10.0,40.0,10.0,40.0,"NORMAL",null,null,"2","BASELINE","2024-03-29","2"],["GLPX1","LB","GLPX1-101-010","8","CREAT","Creatinine","78","umol/L","78",78.0,"umol/L",62.0,106.0,62.0,106.0,"NORMAL",null,null,"2","BASELINE","2024-03-30","3"],["GLPX1","LB","GLPX1-101-010","9","GLUC","Glucose","11.4","mmol/L","11.4",11.4,"mmol/L",3.9,5.6,3.9,5.6,"HIGH",null,null,"3","WEEK 4","2024-04-24","28"],["GLPX1","LB","GLPX1-101-010","10","ALT","Alanine Aminotransferase","39","U/L","39",39.0,"U/L",10.0,40.0,10.0,40.0,"NORMAL",null,null,"3","WEEK 4","2024-04-25","29"],["GLPX1","LB","GLPX1-101-010","11","CREAT","Creatinine","84","umol/L","84",84.0,"umol/L",62.0,106.0,62.0,106.0,"NORMAL",null,null,"3","WEEK 4","2024-04-25","29"],["GLPX1","LB","GLPX1-101-010","12","HBA1C","Hemoglobin A1C","8.1","%","8.1",8.1,"%",4.0,5.6,4.0,5.6,"HIGH",null,null,"3","WEEK 4","2024-04-26","30"],["GLPX1","LB","GLPX1-101-010","13","GLUC","Glucose","9.8","mmol/L","9.8",9.8,"mmol/L",3.9,5.6,3.9,5.6,"HIGH",null,null,"4","WEEK 8","2024-05-22","56"],["GLPX1","LB","GLPX1-101-010","14","ALT","Alanine Aminotransferase","33","U/L","33",33.0,"U/L",10.0,40.0,10.0,40.0,"NORMAL",null,null,"4","WEEK 8","2024-05-23","57"],["GLPX1","LB","GLPX1-101-010","15","CREAT","Creatinine","80","umol/L","80",80.0,"umol/L",62.0,106.0,62.0,106.0,"NORMAL",null,null,"4","WEEK 8","2024-05-23","57"],["GLPX1","LB","GLPX1-101-010","16","HBA1C","Hemoglobin A1C","8.3","%","8.3",8.3,"%",4.0,5.6,4.0,5.6,"HIGH",null,null,"4","WEEK 8","2024-05-25","59"],["GLPX1","LB","GLPX1-101-010","17","ALT","Alanine Aminotransferase","43","U/L","43",43.0,"U/L",10.0,40.0,10.0,40.0,"HIGH",null,null,"5","WEEK 12","2024-06-19","84"],["GLPX1","LB","GLPX1-101-010","18","CREAT","Creatinine","86","umol/L","86",86.0,"umol/L",62.0,106.0,62.0,106.0,"NORMAL",null,null,"5","WEEK 12","2024-06-21","86"],["GLPX1","LB","GLPX1-101-010","19","GLUC","Glucose","11","mmol/L","11",11.0,"mmol/L",3.9,5.6,3.9,5.6,"HIGH",null,null,"5","WEEK 12","2024-06-21","86"],["GLPX1","LB","GLPX1-101-010","20","HBA1C","Hemoglobin A1C","8.1","%","8.1",8.1,"%",4.0,5.6,4.0,5.6,"HIGH",null,null,"5","WEEK 12","2024-06-21","86"],["GLPX1","LB","GLPX1-101-010","21","ALT","Alanine Aminotransferase","40","U/L","40",40.0,"U/L",10.0,40.0,10.0,40.0,"NORMAL",null,null,"6","WEEK 16","2024-07-19","114"],["GLPX1","LB","GLPX1-101-010","22","CREAT","Creatinine","94","umol/L","94",94.0,"umol/L",62.0,106.0,62.0,106.0,"NORMAL",null,null,"6","WEEK 16","2024-07-20","115"],["GLPX1","LB","GLPX1-101-010","23","GLUC","Glucose","8.8","mmol/L","8.8",8.8,"mmol/L",3.9,5.6,3.9,5.6,"HIGH",null,null,"6","WEEK 16","2024-07-20","115"],["GLPX1","LB","GLPX1-101-010","24","HBA1C","Hemoglobin A1C","8.2","%","8.2",8.2,"%",4.0,5.6,4.0,5.6,"HIGH",null,null,"6","WEEK 16","2024-07-20","115"],["GLPX1","LB","GLPX1-101-010","25","CREAT","Creatinine","87","umol/L","87",87.0,"umol/L",62.0,106.0,62.0,106.0,"NORMAL",null,null,"7","WEEK 20","2024-08-14","140"],["GLPX1","LB","GLPX1-101-010","26","ALT","Alanine Aminotransferase","44","U/L","44",44.0,"U/L",10.0,40.0,10.0,40.0,"HIGH",null,null,"7","WEEK 20","2024-08-16","142"],["GLPX1","LB","GLPX1-101-010","27","GLUC","Glucose","8.6","mmol/L","8.6",8.6,"mmol/L",3.9,5.6,3.9,5.6,"HIGH",null,null,"7","WEEK 20","2024-08-16","142"],["GLPX1","LB","GLPX1-101-010","28","HBA1C","Hemoglobin A1C","8.3","%","8.3",8.3,"%",4.0,5.6,4.0,5.6,"HIGH",null,null,"7","WEEK 20","2024-08-18","144"],["GLPX1","LB","GLPX1-101-010","29","ALT","Alanine Aminotransferase","27","U/L","27",27.0,"U/L",10.0,40.0,10.0,40.0,"NORMAL",null,null,"8","WEEK 26","2024-09-24","181"],["GLPX1","LB","GLPX1-101-010","30","HBA1C","Hemoglobin A1C","7.8","%","7.8",7.8,"%",4.0,5.6,4.0,5.6,"HIGH",null,null,"8","WEEK 26","2024-09-24","181"],["GLPX1","LB","GLPX1-101-010","31","GLUC","Glucose","9.4","mmol/L","9.4",9.4,"mmol/L",3.9,5.6,3.9,5.6,"HIGH",null,null,"8","WEEK 26","2024-09-25","182"],["GLPX1","LB","GLPX1-101-010","32","CREAT","Creatinine","76","umol/L","76",76.0,"umol/L",62.0,106.0,62.0,106.0,"NORMAL",null,null,"8","WEEK 26","2024-09-26","183"],["GLPX1","LB","GLPX1-101-012","1","GLUC","Glucose","10.5","mmol/L","10.5",10.5,"mmol/L",3.9,5.6,3.9,5.6,"HIGH",null,"Y","1","SCREENING","2024-02-19","-16"],["GLPX1","LB","GLPX1-101-012","2","HBA1C","Hemoglobin A1C","7.6","%","7.6",7.6,"%",4.0,5.6,4.0,5.6,"HIGH",null,"Y","1","SCREENING","2024-02-19","-16"],["GLPX1","LB","GLPX1-101-012","3","ALT","Alanine Aminotransferase","28","U/L","28",28.0,"U/L",10.0,40.0,10.0,40.0,"NORMAL",null,"Y","1","SCREENING","2024-02-20","-15"],["GLPX1","LB","GLPX1-101-012","4","CREAT","Creatinine","81","umol/L","81",81.0,"umol/L",62.0,106.0,62.0,106.0,"NORMAL",null,"Y","1","SCREENING","2024-02-22","-13"],["GLPX1","LB","GLPX1-101-012","5","ALT","Alanine Aminotransferase","32","U/L","32",32.0,"U/L",10.0,40.0,10.0,40.0,"NORMAL",null,null,"2","BASELINE","2024-03-07","2"],["GLPX1","LB","GLPX1-101-012","6","GLUC","Glucose","8","mmol/L","8",8.0,"mmol/L",3.9,5.6,3.9,5.6,"HIGH",null,null,"2","BASELINE","2024-03-07","2"],["GLPX1","LB","GLPX1-101-012","7","CREAT","Creatinine","81","umol/L","81",81.0,"umol/L",62.0,106.0,62.0,106.0,"NORMAL",null,null,"2","BASELINE","2024-03-08","3"],["GLPX1","LB","GLPX1-101-012","8","HBA1C","Hemoglobin A1C","8.3","%","8.3",8.3,"%",4.0,5.6,4.0,5.6,"HIGH",null,null,"2","BASELINE","2024-03-08","3"],["GLPX1","LB","GLPX1-101-012","9","ALT","Alanine Aminotransferase","42","U/L","42",42.0,"U/L",10.0,40.0,10.0,40.0,"HIGH",null,null,"3","WEEK 4","2024-04-02","28"],["GLPX1","LB","GLPX1-101-012","10","CREAT","Creatinine","87","umol/L","87",87.0,"umol/L",62.0,106.0,62.0,106.0,"NORMAL",null,null,"3","WEEK 4","2024-04-04","30"],["GLPX1","LB","GLPX1-101-012","11","GLUC","Glucose","8.9","mmol/L","8.9",8.9,"mmol/L",3.9,5.6,3.9,5.6,"HIGH",null,null,"3","WEEK 4","2024-04-05","31"],["GLPX1","LB","GLPX1-101-012","12","HBA1C","Hemoglobin A1C","7.8","%","7.8",7.8,"%",4.0,5.6,4.0,5.6,"HIGH",null,null,"3","WEEK 4","2024-04-05","31"],["GLPX1","LB","GLPX1-101-012","13","HBA1C","Hemoglobin A1C","7.6","%","7.6",7.6,"%",4.0,5.6,4.0,5.6,"HIGH",null,null,"4","WEEK 8","2024-05-01","57"],["GLPX1","LB","GLPX1-101-012","14","GLUC","Glucose","12.5","mmol/L","12.5",12.5,"mmol/L",3.9,5.6,3.9,5.6,"HIGH",null,null,"4","WEEK 8","2024-05-02","58"],["GLPX1","LB","GLPX1-101-012","15","ALT","Alanine Aminotransferase","20","U/L","20",20.0,"U/L",10.0,40.0,10.0,40.0,"NORMAL",null,null,"4","WEEK 8","2024-05-04","60"],["GLPX1","LB","GLPX1-101-012","16","CREAT","Creatinine","94","umol/L","94",94.0,"umol/L",62.0,106.0,62.0,106.0,"NORMAL",null,null,"4","WEEK 8","2024-05-04","60"],["GLPX1","LB","GLPX1-101-012","17","ALT","Alanine Aminotransferase","30","U/L","30",30.0,"U/L",10.0,40.0,10.0,40.0,"NORMAL",null,null,"5","WEEK 12","2024-05-29","85"],["GLPX1","LB","GLPX1-101-012","18","CREAT","Creatinine","70","umol/L","70",70.0,"umol/L",62.0,106.0,62.0,106.0,"NORMAL",null,null,"5","WEEK 12","2024-05-29","85"],["GLPX1","LB","GLPX1-101-012","19","HBA1C","Hemoglobin A1C","8.2","%","8.2",8.2,"%",4.0,5.6,4.0,5.6,"HIGH",null,null,"5","WEEK 12","2024-05-29","85"],["GLPX1","LB","GLPX1-101-012","20","GLUC","Glucose","8.9","mmol/L","8.9",8.9,"mmol/L",3.9,5.6,3.9,5.6,"HIGH",null,null,"5","WEEK 12","2024-06-01","88"],["GLPX1","LB","GLPX1-101-012","21","GLUC","Glucose","9.2","mmol/L","9.2",9.2,"mmol/L",3.9,5.6,3.9,5.6,"HIGH",null,null,"6","WEEK 16","2024-06-26","113"],["GLPX1","LB","GLPX1-101-012","22","HBA1C","Hemoglobin A1C","7.7","%","7.7",7.7,"%",4.0,5.6,4.0,5.6,"HIGH",null,null,"6","WEEK 16","2024-06-27","114"],["GLPX1","LB","GLPX1-101-012","23","ALT","Alanine Aminotransferase","26","U/L","26",26.0,"U/L",10.0,40.0,10.0,40.0,"NORMAL",null,null,"6","WEEK 16","2024-06-29","116"],["GLPX1","LB","GLPX1-101-012","24","CREAT","Creatinine","89","umol/L","89",89.0,"umol/L",62.0,106.0,62.0,106.0,"NORMAL",null,null,"6","WEEK 16","2024-06-29","116"],["GLPX1","LB","GLPX1-101-012","25","GLUC","Glucose","8.2","mmol/L","8.2",8.2,"mmol/L",3.9,5.6,3.9,5.6,"HIGH",null,null,"7","WEEK 20","2024-07-23","140"],["GLPX1","LB","GLPX1-101-012","26","ALT","Alanine Aminotransferase","19","U/L","19",19.0,"U/L",10.0,40.0,10.0,40.0,"NORMAL",null,null,"7","WEEK 20","2024-07-24","141"],["GLPX1","LB","GLPX1-101-012","27","HBA1C","Hemoglobin A1C","7.5","%","7.5",7.5,"%",4.0,5.6,4.0,5.6,"HIGH",null,null,"7","WEEK 20","2024-07-24","141"],["GLPX1","LB","GLPX1-101-012","28","CREAT","Creatinine","74","umol/L","74",74.0,"umol/L",62.0,106.0,62.0,106.0,"NORMAL",null,null,"7","WEEK 20","2024-07-27","144"],["GLPX1","LB","GLPX1-101-012","29","ALT","Alanine Aminotransferase","40","U/L","40",40.0,"U/L",10.0,40.0,10.0,40.0,"NORMAL",null,null,"8","WEEK 26","2024-09-02","181"],["GLPX1","LB","GLPX1-101-012","30","HBA1C","Hemoglobin A1C","8","%","8",8.0,"%",4.0,5.6,4.0,5.6,"HIGH",null,null,"8","WEEK 26","2024-09-04","183"],["GLPX1","LB","GLPX1-101-012","31","CREAT","Creatinine","92","umol/L","92",92.0,"umol/L",62.0,106.0,62.0,106.0,"NORMAL",null,null,"8","WEEK 26","2024-09-06","185"],["GLPX1","LB","GLPX1-101-012","32","GLUC","Glucose","8.4","mmol/L","8.4",8.4,"mmol/L",3.9,5.6,3.9,5.6,"HIGH",null,null,"8","WEEK 26","2024-09-06","185"],["GLPX1","LB","GLPX1-101-026","1","ALT","Alanine Aminotransferase","23","U/L","23",23.0,"U/L",7.0,35.0,7.0,35.0,"NORMAL",null,null,"1","SCREENING","2024-04-20","-16"],["GLPX1","LB","GLPX1-101-026","2","CREAT","Creatinine","65","umol/L","65",65.0,"umol/L",44.0,80.0,44.0,80.0,"NORMAL",null,"Y","1","SCREENING","2024-04-20","-16"],["GLPX1","LB","GLPX1-101-026","3","GLUC","Glucose","9.4","mmol/L","9.4",9.4,"mmol/L",3.9,5.6,3.9,5.6,"HIGH",null,"Y","1","SCREENING","2024-04-21","-15"],["GLPX1","LB","GLPX1-101-026","4","HBA1C","Hemoglobin A1C","8.8","%","8.8",8.8,"%",4.0,5.6,4.0,5.6,"HIGH",null,"Y","1","SCREENING","2024-04-21","-15"],["GLPX1","LB","GLPX1-101-026","5","ALT","Alanine Aminotransferase","20","U/L","20",20.0,"U/L",7.0,35.0,7.0,35.0,"NORMAL",null,"Y","2","BASELINE","2024-05-05","-1"],["GLPX1","LB","GLPX1-101-026","6","HBA1C","Hemoglobin A1C","8.9","%","8.9",8.9,"%",4.0,5.6,4.0,5.6,"HIGH",null,null,"2","BASELINE","2024-05-07","2"],["GLPX1","LB","GLPX1-101-026","7","CREAT","Creatinine","56","umol/L","56",56.0,"umol/L",44.0,80.0,44.0,80.0,"NORMAL",null,null,"2","BASELINE","2024-05-08","3"],["GLPX1","LB","GLPX1-101-026","8","GLUC","Glucose","9.7","mmol/L","9.7",9.7,"mmol/L",3.9,5.6,3.9,5.6,"HIGH",null,null,"2","BASELINE","2024-05-09","4"],["GLPX1","LB","GLPX1-101-026","9","HBA1C","Hemoglobin A1C","8.3","%","8.3",8.3,"%",4.0,5.6,4.0,5.6,"HIGH",null,null,"3","WEEK 4","2024-06-02","28"],["GLPX1","LB","GLPX1-101-026","10","GLUC","Glucose","8.1","mmol/L","8.1",8.1,"mmol/L",3.9,5.6,3.9,5.6,"HIGH",null,null,"3","WEEK 4","2024-06-03","29"],["GLPX1","LB","GLPX1-101-026","11","ALT","Alanine Aminotransferase","17","U/L","17",17.0,"U/L",7.0,35.0,7.0,35.0,"NORMAL",null,null,"3","WEEK 4","2024-06-05","31"],["GLPX1","LB","GLPX1-101-026","12","CREAT","Creatinine","61","umol/L","61",61.0,"umol/L",44.0,80.0,44.0,80.0,"NORMAL",null,null,"3","WEEK 4","2024-06-05","31"],["GLPX1","LB","GLPX1-101-026","13","ALT","Alanine Aminotransferase","27","U/L","27",27.0,"U/L",7.0,35.0,7.0,35.0,"NORMAL",null,null,"4","WEEK 8","2024-06-30","56"],["GLPX1","LB","GLPX1-101-026","14","GLUC","Glucose","9.5","mmol/L","9.5",9.5,"mmol/L",3.9,5.6,3.9,5.6,"HIGH",null,null,"4","WEEK 8","2024-07-02","58"],["GLPX1","LB","GLPX1-101-026","15","HBA1C","Hemoglobin A1C","8.5","%","8.5",8.5,"%",4.0,5.6,4.0,5.6,"HIGH",null,null,"4","WEEK 8","2024-07-03","59"],["GLPX1","LB","GLPX1-101-026","16","CREAT","Creatinine","73","umol/L","73",73.0,"umol/L",44.0,80.0,44.0,80.0,"NORMAL",null,null,"4","WEEK 8","2024-07-04","60"],["GLPX1","LB","GLPX1-101-026","17","ALT","Alanine Aminotransferase","23","U/L","23",23.0,"U/L",7.0,35.0,7.0,35.0,"NORMAL",null,null,"5","WEEK 12","2024-07-28","84"],["GLPX1","LB","GLPX1-101-026","18","HBA1C","Hemoglobin A1C","9","%","9",9.0,"%",4.0,5.6,4.0,5.6,"HIGH",null,null,"5","WEEK 12","2024-07-30","86"],["GLPX1","LB","GLPX1-101-026","19","CREAT","Creatinine","83","umol/L","83",83.0,"umol/L",44.0,80.0,44.0,80.0,"HIGH",null,null,"5","WEEK 12","2024-07-31","87"],["GLPX1","LB","GLPX1-101-026","20","GLUC","Glucose","10.5","mmol/L","10.5",10.5,"mmol/L",3.9,5.6,3.9,5.6,"HIGH",null,null,"5","WEEK 12","2024-07-31","87"],["GLPX1","LB","GLPX1-101-026","21","HBA1C","Hemoglobin A1C","8.8","%","8.8",8.8,"%",4.0,5.6,4.0,5.6,"HIGH",null,null,"6","WEEK 16","2024-08-25","112"],["GLPX1","LB","GLPX1-101-026","22","ALT","Alanine Aminotransferase","22","U/L","22",22.0,"U/L",7.0,35.0,7.0,35.0,"NORMAL",null,null,"6","WEEK 16","2024-08-26","113"],["GLPX1","LB","GLPX1-101-026","23","CREAT","Creatinine","69","umol/L","69",69.0,"umol/L",44.0,80.0,44.0,80.0,"NORMAL",null,null,"6","WEEK 16","2024-08-27","114"],["GLPX1","LB","GLPX1-101-026","24","GLUC","Glucose","9.7","mmol/L","9.7",9.7,"mmol/L",3.9,5.6,3.9,5.6,"HIGH",null,null,"6","WEEK 16","2024-08-27","114"],["GLPX1","LB","GLPX1-101-026","25","CREAT","Creatinine","77","umol/L","77",77.0,"umol/L",44.0,80.0,44.0,80.0,"NORMAL",null,null,"7","WEEK 20","2024-09-22","140"],["GLPX1","LB","GLPX1-101-026","26","HBA1C","Hemoglobin A1C","8.4","%","8.4",8.4,"%",4.0,5.6,4.0,5.6,"HIGH",null,null,"7","WEEK 20","2024-09-22","140"],["GLPX1","LB","GLPX1-101-026","27","ALT","Alanine Aminotransferase","23","U/L","23",23.0,"U/L",7.0,35.0,7.0,35.0,"NORMAL",null,null,"7","WEEK 20","2024-09-25","143"],["GLPX1","LB","GLPX1-101-026","28","GLUC","Glucose","10.3","mmol/L","10.3",10.3,"mmol/L",3.9,5.6,3.9,5.6,"HIGH",null,null,"7","WEEK 20","2024-09-25","143"],["GLPX1","LB","GLPX1-101-026","29","CREAT","Creatinine","72","umol/L","72",72.0,"umol/L",44.0,80.0,44.0,80.0,"NORMAL",null,null,"8","WEEK 26","2024-11-02","181"],["GLPX1","LB","GLPX1-101-026","30","ALT","Alanine Aminotransferase","22","U/L","22",22.0,"U/L",7.0,35.0,7.0,35.0,"NORMAL",null,null,"8","WEEK 26","2024-11-03","182"],["GLPX1","LB","GLPX1-101-026","31","GLUC","Glucose","9.1","mmol/L","9.1",9.1,"mmol/L",3.9,5.6,3.9,5.6,"HIGH",null,null,"8","WEEK 26","2024-11-05","184"],["GLPX1","LB","GLPX1-101-026","32","HBA1C","Hemoglobin A1C","8","%","8",8.0,"%",4.0,5.6,4.0,5.6,"HIGH",null,null,"8","WEEK 26","2024-11-05","184"],["GLPX1","LB","GLPX1-101-027","1","GLUC","Glucose","10.6","mmol/L","10.6",10.6,"mmol/L",3.9,5.6,3.9,5.6,"HIGH",null,"Y","1","SCREENING","2024-03-31","-14"],["GLPX1","LB","GLPX1-101-027","2","ALT","Alanine Aminotransferase","34","U/L","34",34.0,"U/L",10.0,40.0,10.0,40.0,"NORMAL",null,null,"1","SCREENING","2024-04-01","-13"],["GLPX1","LB","GLPX1-101-027","3","CREAT","Creatinine","88","umol/L","88",88.0,"umol/L",62.0,106.0,62.0,106.0,"NORMAL",null,"Y","1","SCREENING","2024-04-01","-13"],["GLPX1","LB","GLPX1-101-027","4","HBA1C","Hemoglobin A1C","8.2","%","8.2",8.2,"%",4.0,5.6,4.0,5.6,"HIGH",null,"Y","1","SCREENING","2024-04-01","-13"],["GLPX1","LB","GLPX1-101-027","5","ALT","Alanine Aminotransferase","34","U/L","34",34.0,"U/L",10.0,40.0,10.0,40.0,"NORMAL",null,"Y","2","BASELINE","2024-04-13","-1"],["GLPX1","LB","GLPX1-101-027","6","CREAT","Creatinine","74","umol/L","74",74.0,"umol/L",62.0,106.0,62.0,106.0,"NORMAL",null,null,"2","BASELINE","2024-04-14","1"],["GLPX1","LB","GLPX1-101-027","7","GLUC","Glucose","7.8","mmol/L","7.8",7.8,"mmol/L",3.9,5.6,3.9,5.6,"HIGH",null,null,"2","BASELINE","2024-04-17","4"],["GLPX1","LB","GLPX1-101-027","8","HBA1C","Hemoglobin A1C","7.9","%","7.9",7.9,"%",4.0,5.6,4.0,5.6,"HIGH",null,null,"2","BASELINE","2024-04-17","4"],["GLPX1","LB","GLPX1-101-027","9","CREAT","Creatinine","95","umol/L","95",95.0,"umol/L",62.0,106.0,62.0,106.0,"NORMAL",null,null,"3","WEEK 4","2024-05-11","28"],["GLPX1","LB","GLPX1-101-027","10","HBA1C","Hemoglobin A1C","7.9","%","7.9",7.9,"%",4.0,5.6,4.0,5.6,"HIGH",null,null,"3","WEEK 4","2024-05-11","28"],["GLPX1","LB","GLPX1-101-027","11","ALT","Alanine Aminotransferase","27","U/L","27",27.0,"U/L",10.0,40.0,10.0,40.0,"NORMAL",null,null,"3","WEEK 4","2024-05-15","32"],["GLPX1","LB","GLPX1-101-027","12","GLUC","Glucose","9.9","mmol/L","9.9",9.9,"mmol/L",3.9,5.6,3.9,5.6,"HIGH",null,null,"3","WEEK 4","2024-05-15","32"],["GLPX1","LB","GLPX1-101-027","13","ALT","Alanine Aminotransferase","13","U/L","13",13.0,"U/L",10.0,40.0,10.0,40.0,"NORMAL",null,null,"4","WEEK 8","2024-06-08","56"],["GLPX1","LB","GLPX1-101-027","14","GLUC","Glucose","8.7","mmol/L","8.7",8.7,"mmol/L",3.9,5.6,3.9,5.6,"HIGH",null,null,"4","WEEK 8","2024-06-09","57"],["GLPX1","LB","GLPX1-101-027","15","HBA1C","Hemoglobin A1C","7.8","%","7.8",7.8,"%",4.0,5.6,4.0,5.6,"HIGH",null,null,"4","WEEK 8","2024-06-09","57"],["GLPX1","LB","GLPX1-101-027","16","CREAT","Creatinine","85","umol/L","85",85.0,"umol/L",62.0,106.0,62.0,106.0,"NORMAL",null,null,"4","WEEK 8","2024-06-12","60"],["GLPX1","LB","GLPX1-101-027","17","CREAT","Creatinine","82","umol/L","82",82.0,"umol/L",62.0,106.0,62.0,106.0,"NORMAL",null,null,"5","WEEK 12","2024-07-07","85"],["GLPX1","LB","GLPX1-101-027","18","GLUC","Glucose","8.9","mmol/L","8.9",8.9,"mmol/L",3.9,5.6,3.9,5.6,"HIGH",null,null,"5","WEEK 12","2024-07-07","85"],["GLPX1","LB","GLPX1-101-027","19","ALT","Alanine Aminotransferase","21","U/L","21",21.0,"U/L",10.0,40.0,10.0,40.0,"NORMAL",null,null,"5","WEEK 12","2024-07-08","86"],["GLPX1","LB","GLPX1-101-027","20","HBA1C","Hemoglobin A1C","7.8","%","7.8",7.8,"%",4.0,5.6,4.0,5.6,"HIGH",null,null,"5","WEEK 12","2024-07-08","86"],["GLPX1","LB","GLPX1-101-027","21","CREAT","Creatinine","80","umol/L","80",80.0,"umol/L",62.0,106.0,62.0,106.0,"NORMAL",null,null,"6","WEEK 16","2024-08-05","114"],["GLPX1","LB","GLPX1-101-027","22","HBA1C","Hemoglobin A1C","7.7","%","7.7",7.7,"%",4.0,5.6,4.0,5.6,"HIGH",null,null,"6","WEEK 16","2024-08-05","114"],["GLPX1","LB","GLPX1-101-027","23","ALT","Alanine Aminotransferase","19","U/L","19",19.0,"U/L",10.0,40.0,10.0,40.0,"NORMAL",null,null,"6","WEEK 16","2024-08-06","115"],["GLPX1","LB","GLPX1-101-027","24","GLUC","Glucose","9.5","mmol/L","9.5",9.5,"mmol/L",3.9,5.6,3.9,5.6,"HIGH",null,null,"6","WEEK 16","2024-08-06","115"],["GLPX1","LB","GLPX1-101-027","25","ALT","Alanine Aminotransferase","27","U/L","27",27.0,"U/L",10.0,40.0,10.0,40.0,"NORMAL",null,null,"7","WEEK 20","2024-09-02","142"],["GLPX1","LB","GLPX1-101-027","26","CREAT","Creatinine","93","umol/L","93",93.0,"umol/L",62.0,106.0,62.0,106.0,"NORMAL",null,null,"7","WEEK 20","2024-09-03","143"],["GLPX1","LB","GLPX1-101-027","27","HBA1C","Hemoglobin A1C","7.6","%","7.6",7.6,"%",4.0,5.6,4.0,5.6,"HIGH",null,null,"7","WEEK 20","2024-09-03","143"],["GLPX1","LB","GLPX1-101-027","28","GLUC","Glucose","10.6","mmol/L","10.6",10.6,"mmol/L",3.9,5.6,3.9,5.6,"HIGH",null,null,"7","WEEK 20","2024-09-04","144"],["GLPX1","LB","GLPX1-101-027","29","CREAT","Creatinine","79","umol/L","79",79.0,"umol/L",62.0,106.0,62.0,106.0,"NORMAL",null,null,"8","WEEK 26","2024-10-11","181"],["GLPX1","LB","GLPX1-101-027","30","GLUC","Glucose","8.3","mmol/L","8.3",8.3,"mmol/L",3.9,5.6,3.9,5.6,"HIGH",null,null,"8","WEEK 26","2024-10-11","181"],["GLPX1","LB","GLPX1-101-027","31","ALT","Alanine Aminotransferase","35","U/L","35",35.0,"U/L",10.0,40.0,10.0,40.0,"NORMAL",null,null,"8","WEEK 26","2024-10-13","183"],["GLPX1","LB","GLPX1-101-027","32","HBA1C","Hemoglobin A1C","7.1","%","7.1",7.1,"%",4.0,5.6,4.0,5.6,"HIGH",null,null,"8","WEEK 26","2024-10-14","184"],["GLPX1","LB","GLPX1-101-037","1","HBA1C","Hemoglobin A1C","8.8","%","8.8",8.8,"%",4.0,5.6,4.0,5.6,"HIGH",null,"Y","1","SCREENING","2024-04-05","-14"],["GLPX1","LB","GLPX1-101-037","2","ALT","Alanine Aminotransferase","22","U/L","22",22.0,"U/L",7.0,35.0,7.0,35.0,"NORMAL",null,"Y","1","SCREENING","2024-04-06","-13"],["GLPX1","LB","GLPX1-101-037","3","CREAT","Creatinine","58","umol/L","58",58.0,"umol/L",44.0,80.0,44.0,80.0,"NORMAL",null,"Y","1","SCREENING","2024-04-06","-13"],["GLPX1","LB","GLPX1-101-037","4","GLUC","Glucose","9.3","mmol/L","9.3",9.3,"mmol/L",3.9,5.6,3.9,5.6,"HIGH",null,"Y","1","SCREENING","2024-04-06","-13"],["GLPX1","LB","GLPX1-101-037","5","ALT","Alanine Aminotransferase","26","U/L","26",26.0,"U/L",7.0,35.0,7.0,35.0,"NORMAL",null,null,"2","BASELINE","2024-04-19","1"],["GLPX1","LB","GLPX1-101-037","6","CREAT","Creatinine","77","umol/L","77",77.0,"umol/L",44.0,80.0,44.0,80.0,"NORMAL",null,null,"2","BASELINE","2024-04-19","1"],["GLPX1","LB","GLPX1-101-037","7","GLUC","Glucose","10.7","mmol/L","10.7",10.7,"mmol/L",3.9,5.6,3.9,5.6,"HIGH",null,null,"2","BASELINE","2024-04-19","1"],["GLPX1","LB","GLPX1-101-037","8","HBA1C","Hemoglobin A1C","8.7","%","8.7",8.7,"%",4.0,5.6,4.0,5.6,"HIGH",null,null,"2","BASELINE","2024-04-21","3"],["GLPX1","LB","GLPX1-101-037","9","ALT","Alanine Aminotransferase","24","U/L","24",24.0,"U/L",7.0,35.0,7.0,35.0,"NORMAL",null,null,"3","WEEK 4","2024-05-18","30"],["GLPX1","LB","GLPX1-101-037","10","CREAT","Creatinine","61","umol/L","61",61.0,"umol/L",44.0,80.0,44.0,80.0,"NORMAL",null,null,"3","WEEK 4","2024-05-19","31"],["GLPX1","LB","GLPX1-101-037","11","HBA1C","Hemoglobin A1C","8.4","%","8.4",8.4,"%",4.0,5.6,4.0,5.6,"HIGH",null,null,"3","WEEK 4","2024-05-19","31"],["GLPX1","LB","GLPX1-101-037","12","GLUC","Glucose","9.9","mmol/L","9.9",9.9,"mmol/L",3.9,5.6,3.9,5.6,"HIGH",null,null,"3","WEEK 4","2024-05-20","32"],["GLPX1","LB","GLPX1-101-037","13","ALT","Alanine Aminotransferase","19","U/L","19",19.0,"U/L",7.0,35.0,7.0,35.0,"NORMAL",null,null,"4","WEEK 8","2024-06-13","56"],["GLPX1","LB","GLPX1-101-037","14","CREAT","Creatinine","58","umol/L","58",58.0,"umol/L",44.0,80.0,44.0,80.0,"NORMAL",null,null,"4","WEEK 8","2024-06-14","57"],["GLPX1","LB","GLPX1-101-037","15","HBA1C","Hemoglobin A1C","8.9","%","8.9",8.9,"%",4.0,5.6,4.0,5.6,"HIGH",null,null,"4","WEEK 8","2024-06-15","58"],["GLPX1","LB","GLPX1-101-037","16","GLUC","Glucose","9.6","mmol/L","9.6",9.6,"mmol/L",3.9,5.6,3.9,5.6,"HIGH",null,null,"4","WEEK 8","2024-06-17","60"],["GLPX1","LB","GLPX1-101-037","17","GLUC","Glucose","11.2","mmol/L","11.2",11.2,"mmol/L",3.9,5.6,3.9,5.6,"HIGH",null,null,"5","WEEK 12","2024-07-13","86"],["GLPX1","LB","GLPX1-101-037","18","HBA1C","Hemoglobin A1C","8.5","%","8.5",8.5,"%",4.0,5.6,4.0,5.6,"HIGH",null,null,"5","WEEK 12","2024-07-13","86"],["GLPX1","LB","GLPX1-101-037","19","ALT","Alanine Aminotransferase","19","U/L","19",19.0,"U/L",7.0,35.0,7.0,35.0,"NORMAL",null,null,"5","WEEK 12","2024-07-14","87"],["GLPX1","LB","GLPX1-101-037","20","CREAT","Creatinine","63","umol/L","63",63.0,"umol/L",44.0,80.0,44.0,80.0,"NORMAL",null,null,"5","WEEK 12","2024-07-15","88"],["GLPX1","LB","GLPX1-101-037","21","GLUC","Glucose","7.7","mmol/L","7.7",7.7,"mmol/L",3.9,5.6,3.9,5.6,"HIGH",null,null,"6","WEEK 16","2024-08-10","114"],["GLPX1","LB","GLPX1-101-037","22","ALT","Alanine Aminotransferase","31","U/L","31",31.0,"U/L",7.0,35.0,7.0,35.0,"NORMAL",null,null,"6","WEEK 16","2024-08-11","115"],["GLPX1","LB","GLPX1-101-037","23","CREAT","Creatinine","76","umol/L","76",76.0,"umol/L",44.0,80.0,44.0,80.0,"NORMAL",null,null,"6","WEEK 16","2024-08-11","115"],["GLPX1","LB","GLPX1-101-037","24","HBA1C","Hemoglobin A1C","8.1","%","8.1",8.1,"%",4.0,5.6,4.0,5.6,"HIGH",null,null,"6","WEEK 16","2024-08-11","115"],["GLPX1","LB","GLPX1-101-037","25","GLUC","Glucose","9.3","mmol/L","9.3",9.3,"mmol/L",3.9,5.6,3.9,5.6,"HIGH",null,null,"7","WEEK 20","2024-09-08","143"],["GLPX1","LB","GLPX1-101-037","26","HBA1C","Hemoglobin A1C","8.3","%","8.3",8.3,"%",4.0,5.6,4.0,5.6,"HIGH",null,null,"7","WEEK 20","2024-09-08","143"],["GLPX1","LB","GLPX1-101-037","27","ALT","Alanine Aminotransferase","18","U/L","18",18.0,"U/L",7.0,35.0,7.0,35.0,"NORMAL",null,null,"7","WEEK 20","2024-09-09","144"],["GLPX1","LB","GLPX1-101-037","28","CREAT","Creatinine","58","umol/L","58",58.0,"umol/L",44.0,80.0,44.0,80.0,"NORMAL",null,null,"7","WEEK 20","2024-09-09","144"],["GLPX1","LB","GLPX1-101-037","29","ALT","Alanine Aminotransferase","25","U/L","25",25.0,"U/L",7.0,35.0,7.0,35.0,"NORMAL",null,null,"8","WEEK 26","2024-10-16","181"],["GLPX1","LB","GLPX1-101-037","30","HBA1C","Hemoglobin A1C","8.6","%","8.6",8.6,"%",4.0,5.6,4.0,5.6,"HIGH",null,null,"8","WEEK 26","2024-10-17","182"],["GLPX1","LB","GLPX1-101-037","31","CREAT","Creatinine","74","umol/L","74",74.0,"umol/L",44.0,80.0,44.0,80.0,"NORMAL",null,null,"8","WEEK 26","2024-10-19","184"],["GLPX1","LB","GLPX1-101-037","32","GLUC","Glucose","9.7","mmol/L","9.7",9.7,"mmol/L",3.9,5.6,3.9,5.6,"HIGH",null,null,"8","WEEK 26","2024-10-20","185"],["GLPX1","LB","GLPX1-101-045","1","CREAT","Creatinine","82","umol/L","82",82.0,"umol/L",44.0,80.0,44.0,80.0,"HIGH",null,"Y","1","SCREENING","2024-02-27","-16"],["GLPX1","LB","GLPX1-101-045","2","GLUC","Glucose","11.5","mmol/L","11.5",11.5,"mmol/L",3.9,5.6,3.9,5.6,"HIGH",null,"Y","1","SCREENING","2024-02-28","-15"],["GLPX1","LB","GLPX1-101-045","3","ALT","Alanine Aminotransferase","18","U/L","18",18.0,"U/L",7.0,35.0,7.0,35.0,"NORMAL",null,"Y","1","SCREENING","2024-03-01","-13"],["GLPX1","LB","GLPX1-101-045","4","HBA1C","Hemoglobin A1C","9.8","%","9.8",9.8,"%",4.0,5.6,4.0,5.6,"HIGH",null,null,"1","SCREENING","2024-03-02","-12"],["GLPX1","LB","GLPX1-101-045","5","HBA1C","Hemoglobin A1C","9","%","9",9.0,"%",4.0,5.6,4.0,5.6,"HIGH",null,"Y","2","BASELINE","2024-03-13","-1"],["GLPX1","LB","GLPX1-101-045","6","ALT","Alanine Aminotransferase","36","U/L","36",36.0,"U/L",7.0,35.0,7.0,35.0,"HIGH",null,null,"2","BASELINE","2024-03-14","1"],["GLPX1","LB","GLPX1-101-045","7","CREAT","Creatinine","58","umol/L","58",58.0,"umol/L",44.0,80.0,44.0,80.0,"NORMAL",null,null,"2","BASELINE","2024-03-14","1"],["GLPX1","LB","GLPX1-101-045","8","GLUC","Glucose","11.5","mmol/L","11.5",11.5,"mmol/L",3.9,5.6,3.9,5.6,"HIGH",null,null,"2","BASELINE","2024-03-16","3"],["GLPX1","LB","GLPX1-101-045","9","HBA1C","Hemoglobin A1C","9.4","%","9.4",9.4,"%",4.0,5.6,4.0,5.6,"HIGH",null,null,"3","WEEK 4","2024-04-10","28"],["GLPX1","LB","GLPX1-101-045","10","GLUC","Glucose","11.3","mmol/L","11.3",11.3,"mmol/L",3.9,5.6,3.9,5.6,"HIGH",null,null,"3","WEEK 4","2024-04-11","29"],["GLPX1","LB","GLPX1-101-045","11","CREAT","Creatinine","64","umol/L","64",64.0,"umol/L",44.0,80.0,44.0,80.0,"NORMAL",null,null,"3","WEEK 4","2024-04-13","31"],["GLPX1","LB","GLPX1-101-045","12","ALT","Alanine Aminotransferase","29","U/L","29",29.0,"U/L",7.0,35.0,7.0,35.0,"NORMAL",null,null,"3","WEEK 4","2024-04-14","32"],["GLPX1","LB","GLPX1-101-045","13","HBA1C","Hemoglobin A1C","8.9","%","8.9",8.9,"%",4.0,5.6,4.0,5.6,"HIGH",null,null,"4","WEEK 8","2024-05-08","56"],["GLPX1","LB","GLPX1-101-045","14","GLUC","Glucose","10.2","mmol/L","10.2",10.2,"mmol/L",3.9,5.6,3.9,5.6,"HIGH",null,null,"4","WEEK 8","2024-05-09","57"],["GLPX1","LB","GLPX1-101-045","15","ALT","Alanine Aminotransferase","26","U/L","26",26.0,"U/L",7.0,35.0,7.0,35.0,"NORMAL",null,null,"4","WEEK 8","2024-05-10","58"],["GLPX1","LB","GLPX1-101-045","16","CREAT","Creatinine","93","umol/L","93",93.0,"umol/L",44.0,80.0,44.0,80.0,"HIGH",null,null,"4","WEEK 8","2024-05-12","60"],["GLPX1","LB","GLPX1-101-045","17","CREAT","Creatinine","54","umol/L","54",54.0,"umol/L",44.0,80.0,44.0,80.0,"NORMAL",null,null,"5","WEEK 12","2024-06-06","85"],["GLPX1","LB","GLPX1-101-045","18","GLUC","Glucose","11.6","mmol/L","11.6",11.6,"mmol/L",3.9,5.6,3.9,5.6,"HIGH",null,null,"5","WEEK 12","2024-06-07","86"],["GLPX1","LB","GLPX1-101-045","19","HBA1C","Hemoglobin A1C","9.6","%","9.6",9.6,"%",4.0,5.6,4.0,5.6,"HIGH",null,null,"5","WEEK 12","2024-06-07","86"],["GLPX1","LB","GLPX1-101-045","20","ALT","Alanine Aminotransferase","28","U/L","28",28.0,"U/L",7.0,35.0,7.0,35.0,"NORMAL",null,null,"5","WEEK 12","2024-06-08","87"],["GLPX1","LB","GLPX1-101-045","21","CREAT","Creatinine","50","umol/L","50",50.0,"umol/L",44.0,80.0,44.0,80.0,"NORMAL",null,null,"6","WEEK 16","2024-07-03","112"],["GLPX1","LB","GLPX1-101-045","22","GLUC","Glucose","10.3","mmol/L","10.3",10.3,"mmol/L",3.9,5.6,3.9,5.6,"HIGH",null,null,"6","WEEK 16","2024-07-05","114"],["GLPX1","LB","GLPX1-101-045","23","ALT","Alanine Aminotransferase","30","U/L","30",30.0,"U/L",7.0,35.0,7.0,35.0,"NORMAL",null,null,"6","WEEK 16","2024-07-06","115"],["GLPX1","LB","GLPX1-101-045","24","HBA1C","Hemoglobin A1C","8.9","%","8.9",8.9,"%",4.0,5.6,4.0,5.6,"HIGH",null,null,"6","WEEK 16","2024-07-06","115"],["GLPX1","LB","GLPX1-101-045","25","HBA1C","Hemoglobin A1C","9.2","%","9.2",9.2,"%",4.0,5.6,4.0,5.6,"HIGH",null,null,"7","WEEK 20","2024-07-31","140"],["GLPX1","LB","GLPX1-101-045","26","ALT","Alanine Aminotransferase","30","U/L","30",30.0,"U/L",7.0,35.0,7.0,35.0,"NORMAL",null,null,"7","WEEK 20","2024-08-03","143"],["GLPX1","LB","GLPX1-101-045","27","CREAT","Creatinine","62","umol/L","62",62.0,"umol/L",44.0,80.0,44.0,80.0,"NORMAL",null,null,"7","WEEK 20","2024-08-04","144"],["GLPX1","LB","GLPX1-101-045","28","GLUC","Glucose","9.2","mmol/L","9.2",9.2,"mmol/L",3.9,5.6,3.9,5.6,"HIGH",null,null,"7","WEEK 20","2024-08-04","144"],["GLPX1","LB","GLPX1-101-045","29","ALT","Alanine Aminotransferase","11","U/L","11",11.0,"U/L",7.0,35.0,7.0,35.0,"NORMAL",null,null,"8","WEEK 26","2024-09-10","181"],["GLPX1","LB","GLPX1-101-045","30","CREAT","Creatinine","50","umol/L","50",50.0,"umol/L",44.0,80.0,44.0,80.0,"NORMAL",null,null,"8","WEEK 26","2024-09-12","183"],["GLPX1","LB","GLPX1-101-045","31","HBA1C","Hemoglobin A1C","8.8","%","8.8",8.8,"%",4.0,5.6,4.0,5.6,"HIGH",null,null,"8","WEEK 26","2024-09-12","183"],["GLPX1","LB","GLPX1-101-045","32","GLUC","Glucose","8.1","mmol/L","8.1",8.1,"mmol/L",3.9,5.6,3.9,5.6,"HIGH",null,null,"8","WEEK 26","2024-09-14","185"],["GLPX1","LB","GLPX1-101-052","1","CREAT","Creatinine","59","umol/L","59",59.0,"umol/L",62.0,106.0,62.0,106.0,"LOW",null,"Y","1","SCREENING","2024-03-25","-16"],["GLPX1","LB","GLPX1-101-052","2","HBA1C","Hemoglobin A1C","13.9","%","13.9",13.9,"%",4.0,5.6,4.0,5.6,"HIGH",null,"Y","1","SCREENING","2024-03-26","-15"],["GLPX1","LB","GLPX1-101-052","3","GLUC","Glucose","9.5","mmol/L","9.5",9.5,"mmol/L",3.9,5.6,3.9,5.6,"HIGH",null,"Y","1","SCREENING","2024-03-27","-14"],["GLPX1","LB","GLPX1-101-052","4","ALT","Alanine Aminotransferase","34","U/L","34",34.0,"U/L",10.0,40.0,10.0,40.0,"NORMAL",null,null,"1","SCREENING","2024-03-28","-13"],["GLPX1","LB","GLPX1-101-052","5","ALT","Alanine Aminotransferase","32","U/L","32",32.0,"U/L",10.0,40.0,10.0,40.0,"NORMAL",null,"Y","2","BASELINE","2024-04-09","-1"],["GLPX1","LB","GLPX1-101-052","6","GLUC","Glucose","8.4","mmol/L","8.4",8.4,"mmol/L",3.9,5.6,3.9,5.6,"HIGH",null,null,"2","BASELINE","2024-04-11","2"],["GLPX1","LB","GLPX1-101-052","7","CREAT","Creatinine","77","umol/L","77",77.0,"umol/L",62.0,106.0,62.0,106.0,"NORMAL",null,null,"2","BASELINE","2024-04-12","3"],["GLPX1","LB","GLPX1-101-052","8","HBA1C","Hemoglobin A1C","9","%","9",9.0,"%",4.0,5.6,4.0,5.6,"HIGH",null,null,"2","BASELINE","2024-04-13","4"],["GLPX1","LB","GLPX1-101-052","9","CREAT","Creatinine","84","umol/L","84",84.0,"umol/L",62.0,106.0,62.0,106.0,"NORMAL",null,null,"3","WEEK 4","2024-05-09","30"],["GLPX1","LB","GLPX1-101-052","10","GLUC","Glucose","8.8","mmol/L","8.8",8.8,"mmol/L",3.9,5.6,3.9,5.6,"HIGH",null,null,"3","WEEK 4","2024-05-09","30"],["GLPX1","LB","GLPX1-101-052","11","HBA1C","Hemoglobin A1C","8.6","%","8.6",8.6,"%",4.0,5.6,4.0,5.6,"HIGH",null,null,"3","WEEK 4","2024-05-10","31"],["GLPX1","LB","GLPX1-101-052","12","ALT","Alanine Aminotransferase","28","U/L","28",28.0,"U/L",10.0,40.0,10.0,40.0,"NORMAL",null,null,"3","WEEK 4","2024-05-11","32"],["GLPX1","LB","GLPX1-101-052","13","GLUC","Glucose","8.1","mmol/L","8.1",8.1,"mmol/L",3.9,5.6,3.9,5.6,"HIGH",null,null,"4","WEEK 8","2024-06-04","56"],["GLPX1","LB","GLPX1-101-052","14","ALT","Alanine Aminotransferase","35","U/L","35",35.0,"U/L",10.0,40.0,10.0,40.0,"NORMAL",null,null,"4","WEEK 8","2024-06-05","57"],["GLPX1","LB","GLPX1-101-052","15","HBA1C","Hemoglobin A1C","8","%","8",8.0,"%",4.0,5.6,4.0,5.6,"HIGH",null,null,"4","WEEK 8","2024-06-06","58"],["GLPX1","LB","GLPX1-101-052","16","CREAT","Creatinine","84","umol/L","84",84.0,"umol/L",62.0,106.0,62.0,106.0,"NORMAL",null,null,"4","WEEK 8","2024-06-08","60"],["GLPX1","LB","GLPX1-101-052","17","ALT","Alanine Aminotransferase","26","U/L","26",26.0,"U/L",10.0,40.0,10.0,40.0,"NORMAL",null,null,"5","WEEK 12","2024-07-02","84"],["GLPX1","LB","GLPX1-101-052","18","GLUC","Glucose","8.1","mmol/L","8.1",8.1,"mmol/L",3.9,5.6,3.9,5.6,"HIGH",null,null,"5","WEEK 12","2024-07-05","87"],["GLPX1","LB","GLPX1-101-052","19","CREAT","Creatinine","80","umol/L","80",80.0,"umol/L",62.0,106.0,62.0,106.0,"NORMAL",null,null,"5","WEEK 12","2024-07-06","88"],["GLPX1","LB","GLPX1-101-052","20","HBA1C","Hemoglobin A1C","8.6","%","8.6",8.6,"%",4.0,5.6,4.0,5.6,"HIGH",null,null,"5","WEEK 12","2024-07-06","88"],["GLPX1","LB","GLPX1-101-052","21","ALT","Alanine Aminotransferase","19","U/L","19",19.0,"U/L",10.0,40.0,10.0,40.0,"NORMAL",null,null,"6","WEEK 16","2024-07-31","113"],["GLPX1","LB","GLPX1-101-052","22","HBA1C","Hemoglobin A1C","7.6","%","7.6",7.6,"%",4.0,5.6,4.0,5.6,"HIGH",null,null,"6","WEEK 16","2024-07-31","113"],["GLPX1","LB","GLPX1-101-052","23","CREAT","Creatinine","88","umol/L","88",88.0,"umol/L",62.0,106.0,62.0,106.0,"NORMAL",null,null,"6","WEEK 16","2024-08-01","114"],["GLPX1","LB","GLPX1-101-052","24","GLUC","Glucose","7.5","mmol/L","7.5",7.5,"mmol/L",3.9,5.6,3.9,5.6,"HIGH",null,null,"6","WEEK 16","2024-08-03","116"],["GLPX1","LB","GLPX1-101-052","25","ALT","Alanine Aminotransferase","23","U/L","23",23.0,"U/L",10.0,40.0,10.0,40.0,"NORMAL",null,null,"7","WEEK 20","2024-08-28","141"],["GLPX1","LB","GLPX1-101-052","26","HBA1C","Hemoglobin A1C","7.7","%","7.7",7.7,"%",4.0,5.6,4.0,5.6,"HIGH",null,null,"7","WEEK 20","2024-08-28","141"],["GLPX1","LB","GLPX1-101-052","27","GLUC","Glucose","8","mmol/L","8",8.0,"mmol/L",3.9,5.6,3.9,5.6,"HIGH",null,null,"7","WEEK 20","2024-08-29","142"],["GLPX1","LB","GLPX1-101-052","28","CREAT","Creatinine","69","umol/L","69",69.0,"umol/L",62.0,106.0,62.0,106.0,"NORMAL",null,null,"7","WEEK 20","2024-08-30","143"],["GLPX1","LB","GLPX1-101-052","29","GLUC","Glucose","8.4","mmol/L","8.4",8.4,"mmol/L",3.9,5.6,3.9,5.6,"HIGH",null,null,"8","WEEK 26","2024-10-07","181"],["GLPX1","LB","GLPX1-101-052","30","ALT","Alanine Aminotransferase","22","U/L","22",22.0,"U/L",10.0,40.0,10.0,40.0,"NORMAL",null,null,"8","WEEK 26","2024-10-08","182"],["GLPX1","LB","GLPX1-101-052","31","CREAT","Creatinine","71","umol/L","71",71.0,"umol/L",62.0,106.0,62.0,106.0,"NORMAL",null,null,"8","WEEK 26","2024-10-10","184"],["GLPX1","LB","GLPX1-101-052","32","HBA1C","Hemoglobin A1C","7.4","%","7.4",7.4,"%",4.0,5.6,4.0,5.6,"HIGH",null,null,"8","WEEK 26","2024-10-11","185"],["GLPX1","LB","GLPX1-101-055","1","CREAT","Creatinine","67","umol/L","67",67.0,"umol/L",44.0,80.0,44.0,80.0,"NORMAL",null,"Y","1","SCREENING","2024-01-24","-16"],["GLPX1","LB","GLPX1-101-055","2","ALT","Alanine Aminotransferase","21","U/L","21",21.0,"U/L",7.0,35.0,7.0,35.0,"NORMAL",null,null,"1","SCREENING","2024-01-26","-14"],["GLPX1","LB","GLPX1-101-055","3","HBA1C","Hemoglobin A1C","7.3","%","7.3",7.3,"%",4.0,5.6,4.0,5.6,"HIGH",null,"Y","1","SCREENING","2024-01-27","-13"],["GLPX1","LB","GLPX1-101-055","4","GLUC","Glucose","6.9","mmol/L","6.9",6.9,"mmol/L",3.9,5.6,3.9,5.6,"HIGH",null,"Y","1","SCREENING","2024-01-28","-12"],["GLPX1","LB","GLPX1-101-055","5","ALT","Alanine Aminotransferase","26","U/L","26",26.0,"U/L",7.0,35.0,7.0,35.0,"NORMAL",null,"Y","2","BASELINE","2024-02-08","-1"],["GLPX1","LB","GLPX1-101-055","6","CREAT","Creatinine","77","umol/L","77",77.0,"umol/L",44.0,80.0,44.0,80.0,"NORMAL",null,null,"2","BASELINE","2024-02-10","2"],["GLPX1","LB","GLPX1-101-055","7","GLUC","Glucose","11.8","mmol/L","11.8",11.8,"mmol/L",3.9,5.6,3.9,5.6,"HIGH",null,null,"2","BASELINE","2024-02-11","3"],["GLPX1","LB","GLPX1-101-055","8","HBA1C","Hemoglobin A1C","6.6","%","6.6",6.6,"%",4.0,5.6,4.0,5.6,"HIGH",null,null,"2","BASELINE","2024-02-11","3"],["GLPX1","LB","GLPX1-101-055","9","ALT","Alanine Aminotransferase","20","U/L","20",20.0,"U/L",7.0,35.0,7.0,35.0,"NORMAL",null,null,"3","WEEK 4","2024-03-07","28"],["GLPX1","LB","GLPX1-101-055","10","HBA1C","Hemoglobin A1C","7.1","%","7.1",7.1,"%",4.0,5.6,4.0,5.6,"HIGH",null,null,"3","WEEK 4","2024-03-10","31"],["GLPX1","LB","GLPX1-101-055","11","CREAT","Creatinine","48","umol/L","48",48.0,"umol/L",44.0,80.0,44.0,80.0,"NORMAL",null,null,"3","WEEK 4","2024-03-11","32"],["GLPX1","LB","GLPX1-101-055","12","GLUC","Glucose","9.9","mmol/L","9.9",9.9,"mmol/L",3.9,5.6,3.9,5.6,"HIGH",null,null,"3","WEEK 4","2024-03-11","32"],["GLPX1","LB","GLPX1-101-055","13","HBA1C","Hemoglobin A1C","7.2","%","7.2",7.2,"%",4.0,5.6,4.0,5.6,"HIGH",null,null,"4","WEEK 8","2024-04-05","57"],["GLPX1","LB","GLPX1-101-055","14","CREAT","Creatinine","67","umol/L","67",67.0,"umol/L",44.0,80.0,44.0,80.0,"NORMAL",null,null,"4","WEEK 8","2024-04-07","59"],["GLPX1","LB","GLPX1-101-055","15","ALT","Alanine Aminotransferase","37","U/L","37",37.0,"U/L",7.0,35.0,7.0,35.0,"HIGH",null,null,"4","WEEK 8","2024-04-08","60"],["GLPX1","LB","GLPX1-101-055","16","GLUC","Glucose","10.7","mmol/L","10.7",10.7,"mmol/L",3.9,5.6,3.9,5.6,"HIGH",null,null,"4","WEEK 8","2024-04-08","60"],["GLPX1","LB","GLPX1-101-055","17","GLUC","Glucose","8.4","mmol/L","8.4",8.4,"mmol/L",3.9,5.6,3.9,5.6,"HIGH",null,null,"5","WEEK 12","2024-05-03","85"],["GLPX1","LB","GLPX1-101-055","18","ALT","Alanine Aminotransferase","37","U/L","37",37.0,"U/L",7.0,35.0,7.0,35.0,"HIGH",null,null,"5","WEEK 12","2024-05-05","87"],["GLPX1","LB","GLPX1-101-055","19","CREAT","Creatinine","69","umol/L","69",69.0,"umol/L",44.0,80.0,44.0,80.0,"NORMAL",null,null,"5","WEEK 12","2024-05-06","88"],["GLPX1","LB","GLPX1-101-055","20","HBA1C","Hemoglobin A1C","6.7","%","6.7",6.7,"%",4.0,5.6,4.0,5.6,"HIGH",null,null,"5","WEEK 12","2024-05-06","88"],["GLPX1","LB","GLPX1-101-055","21","CREAT","Creatinine","52","umol/L","52",52.0,"umol/L",44.0,80.0,44.0,80.0,"NORMAL",null,null,"6","WEEK 16","2024-05-31","113"],["GLPX1","LB","GLPX1-101-055","22","HBA1C","Hemoglobin A1C","6.8","%","6.8",6.8,"%",4.0,5.6,4.0,5.6,"HIGH",null,null,"6","WEEK 16","2024-05-31","113"],["GLPX1","LB","GLPX1-101-055","23","ALT","Alanine Aminotransferase","22","U/L","22",22.0,"U/L",7.0,35.0,7.0,35.0,"NORMAL",null,null,"6","WEEK 16","2024-06-01","114"],["GLPX1","LB","GLPX1-101-055","24","GLUC","Glucose","9.9","mmol/L","9.9",9.9,"mmol/L",3.9,5.6,3.9,5.6,"HIGH",null,null,"6","WEEK 16","2024-06-03","116"],["GLPX1","LB","GLPX1-101-055","25","GLUC","Glucose","9.4","mmol/L","9.4",9.4,"mmol/L",3.9,5.6,3.9,5.6,"HIGH",null,null,"7","WEEK 20","2024-06-27","140"],["GLPX1","LB","GLPX1-101-055","26","HBA1C","Hemoglobin A1C","6.9","%","6.9",6.9,"%",4.0,5.6,4.0,5.6,"HIGH",null,null,"7","WEEK 20","2024-06-27","140"],["GLPX1","LB","GLPX1-101-055","27","CREAT","Creatinine","65","umol/L","65",65.0,"umol/L",44.0,80.0,44.0,80.0,"NORMAL",null,null,"7","WEEK 20","2024-06-28","141"],["GLPX1","LB","GLPX1-101-055","28","ALT","Alanine Aminotransferase","32","U/L","32",32.0,"U/L",7.0,35.0,7.0,35.0,"NORMAL",null,null,"7","WEEK 20","2024-06-30","143"],["GLPX1","LB","GLPX1-101-055","29","CREAT","Creatinine","68","umol/L","68",68.0,"umol/L",44.0,80.0,44.0,80.0,"NORMAL",null,null,"8","WEEK 26","2024-08-07","181"],["GLPX1","LB","GLPX1-101-055","30","GLUC","Glucose","9.1","mmol/L","9.1",9.1,"mmol/L",3.9,5.6,3.9,5.6,"HIGH",null,null,"8","WEEK 26","2024-08-07","181"],["GLPX1","LB","GLPX1-101-055","31","HBA1C","Hemoglobin A1C","6.9","%","6.9",6.9,"%",4.0,5.6,4.0,5.6,"HIGH",null,null,"8","WEEK 26","2024-08-07","181"],["GLPX1","LB","GLPX1-101-055","32","ALT","Alanine Aminotransferase","27","U/L","27",27.0,"U/L",7.0,35.0,7.0,35.0,"NORMAL",null,null,"8","WEEK 26","2024-08-09","183"],["GLPX1","LB","GLPX1-101-061","1","GLUC","Glucose","9.9","mmol/L","9.9",9.9,"mmol/L",3.9,5.6,3.9,5.6,"HIGH",null,"Y","1","SCREENING","2024-01-19","-15"],["GLPX1","LB","GLPX1-101-061","2","HBA1C","Hemoglobin A1C","8.5","%","8.5",8.5,"%",4.0,5.6,4.0,5.6,"HIGH",null,"Y","1","SCREENING","2024-01-19","-15"],["GLPX1","LB","GLPX1-101-061","3","CREAT","Creatinine","88","umol/L","88",88.0,"umol/L",62.0,106.0,62.0,106.0,"NORMAL",null,"Y","1","SCREENING","2024-01-20","-14"],["GLPX1","LB","GLPX1-101-061","4","ALT","Alanine Aminotransferase","16","U/L","16",16.0,"U/L",10.0,40.0,10.0,40.0,"NORMAL",null,"Y","1","SCREENING","2024-01-21","-13"],["GLPX1","LB","GLPX1-101-061","5","CREAT","Creatinine","81","umol/L","81",81.0,"umol/L",62.0,106.0,62.0,106.0,"NORMAL",null,null,"2","BASELINE","2024-02-03","1"],["GLPX1","LB","GLPX1-101-061","6","GLUC","Glucose","11.2","mmol/L","11.2",11.2,"mmol/L",3.9,5.6,3.9,5.6,"HIGH",null,null,"2","BASELINE","2024-02-03","1"],["GLPX1","LB","GLPX1-101-061","7","ALT","Alanine Aminotransferase","29","U/L","29",29.0,"U/L",10.0,40.0,10.0,40.0,"NORMAL",null,null,"2","BASELINE","2024-02-04","2"],["GLPX1","LB","GLPX1-101-061","8","HBA1C","Hemoglobin A1C","8.3","%","8.3",8.3,"%",4.0,5.6,4.0,5.6,"HIGH",null,null,"2","BASELINE","2024-02-05","3"],["GLPX1","LB","GLPX1-101-061","9","ALT","Alanine Aminotransferase","27","U/L","27",27.0,"U/L",10.0,40.0,10.0,40.0,"NORMAL",null,null,"3","WEEK 4","2024-03-02","29"],["GLPX1","LB","GLPX1-101-061","10","CREAT","Creatinine","81","umol/L","81",81.0,"umol/L",62.0,106.0,62.0,106.0,"NORMAL",null,null,"3","WEEK 4","2024-03-05","32"],["GLPX1","LB","GLPX1-101-061","11","GLUC","Glucose","8.1","mmol/L","8.1",8.1,"mmol/L",3.9,5.6,3.9,5.6,"HIGH",null,null,"3","WEEK 4","2024-03-05","32"],["GLPX1","LB","GLPX1-101-061","12","HBA1C","Hemoglobin A1C","8.3","%","8.3",8.3,"%",4.0,5.6,4.0,5.6,"HIGH",null,null,"3","WEEK 4","2024-03-05","32"],["GLPX1","LB","GLPX1-101-061","13","HBA1C","Hemoglobin A1C","8","%","8",8.0,"%",4.0,5.6,4.0,5.6,"HIGH",null,null,"4","WEEK 8","2024-03-31","58"],["GLPX1","LB","GLPX1-101-061","14","ALT","Alanine Aminotransferase","11","U/L","11",11.0,"U/L",10.0,40.0,10.0,40.0,"NORMAL",null,null,"4","WEEK 8","2024-04-01","59"],["GLPX1","LB","GLPX1-101-061","15","GLUC","Glucose","8","mmol/L","8",8.0,"mmol/L",3.9,5.6,3.9,5.6,"HIGH",null,null,"4","WEEK 8","2024-04-01","59"],["GLPX1","LB","GLPX1-101-061","16","CREAT","Creatinine","72","umol/L","72",72.0,"umol/L",62.0,106.0,62.0,106.0,"NORMAL",null,null,"4","WEEK 8","2024-04-02","60"],["GLPX1","LB","GLPX1-101-061","17","ALT","Alanine Aminotransferase","29","U/L","29",29.0,"U/L",10.0,40.0,10.0,40.0,"NORMAL",null,null,"5","WEEK 12","2024-04-27","85"],["GLPX1","LB","GLPX1-101-061","18","GLUC","Glucose","8.7","mmol/L","8.7",8.7,"mmol/L",3.9,5.6,3.9,5.6,"HIGH",null,null,"5","WEEK 12","2024-04-28","86"],["GLPX1","LB","GLPX1-101-061","19","CREAT","Creatinine","77","umol/L","77",77.0,"umol/L",62.0,106.0,62.0,106.0,"NORMAL",null,null,"5","WEEK 12","2024-04-30","88"],["GLPX1","LB","GLPX1-101-061","20","HBA1C","Hemoglobin A1C","7.8","%","7.8",7.8,"%",4.0,5.6,4.0,5.6,"HIGH",null,null,"5","WEEK 12","2024-04-30","88"],["GLPX1","LB","GLPX1-101-061","21","CREAT","Creatinine","98","umol/L","98",98.0,"umol/L",62.0,106.0,62.0,106.0,"NORMAL",null,null,"6","WEEK 16","2024-05-24","112"],["GLPX1","LB","GLPX1-101-061","22","GLUC","Glucose","10.3","mmol/L","10.3",10.3,"mmol/L",3.9,5.6,3.9,5.6,"HIGH",null,null,"6","WEEK 16","2024-05-24","112"],["GLPX1","LB","GLPX1-101-061","23","ALT","Alanine Aminotransferase","33","U/L","33",33.0,"U/L",10.0,40.0,10.0,40.0,"NORMAL",null,null,"6","WEEK 16","2024-05-28","116"],["GLPX1","LB","GLPX1-101-061","24","HBA1C","Hemoglobin A1C","7.3","%","7.3",7.3,"%",4.0,5.6,4.0,5.6,"HIGH",null,null,"6","WEEK 16","2024-05-28","116"],["GLPX1","LB","GLPX1-101-061","25","CREAT","Creatinine","88","umol/L","88",88.0,"umol/L",62.0,106.0,62.0,106.0,"NORMAL",null,null,"7","WEEK 20","2024-06-21","140"],["GLPX1","LB","GLPX1-101-061","26","HBA1C","Hemoglobin A1C","7.9","%","7.9",7.9,"%",4.0,5.6,4.0,5.6,"HIGH",null,null,"7","WEEK 20","2024-06-21","140"],["GLPX1","LB","GLPX1-101-061","27","ALT","Alanine Aminotransferase","25","U/L","25",25.0,"U/L",10.0,40.0,10.0,40.0,"NORMAL",null,null,"7","WEEK 20","2024-06-22","141"],["GLPX1","LB","GLPX1-101-061","28","GLUC","Glucose","8.9","mmol/L","8.9",8.9,"mmol/L",3.9,5.6,3.9,5.6,"HIGH",null,null,"7","WEEK 20","2024-06-24","143"],["GLPX1","LB","GLPX1-101-061","29","CREAT","Creatinine","84","umol/L","84",84.0,"umol/L",62.0,106.0,62.0,106.0,"NORMAL",null,null,"8","WEEK 26","2024-08-01","181"],["GLPX1","LB","GLPX1-101-061","30","ALT","Alanine Aminotransferase","42","U/L","42",42.0,"U/L",10.0,40.0,10.0,40.0,"HIGH",null,null,"8","WEEK 26","2024-08-02","182"],["GLPX1","LB","GLPX1-101-061","31","GLUC","Glucose","9.2","mmol/L","9.2",9.2,"mmol/L",3.9,5.6,3.9,5.6,"HIGH",null,null,"8","WEEK 26","2024-08-03","183"],["GLPX1","LB","GLPX1-101-061","32","HBA1C","Hemoglobin A1C","8.2","%","8.2",8.2,"%",4.0,5.6,4.0,5.6,"HIGH",null,null,"8","WEEK 26","2024-08-05","185"],["GLPX1","LB","GLPX1-101-071","1","CREAT","Creatinine","68","umol/L","68",68.0,"umol/L",44.0,80.0,44.0,80.0,"NORMAL",null,"Y","1","SCREENING","2024-05-16","-16"],["GLPX1","LB","GLPX1-101-071","2","ALT","Alanine Aminotransferase","28","U/L","28",28.0,"U/L",7.0,35.0,7.0,35.0,"NORMAL",null,"Y","1","SCREENING","2024-05-17","-15"],["GLPX1","LB","GLPX1-101-071","3","HBA1C","Hemoglobin A1C","9.1","%","9.1",9.1,"%",4.0,5.6,4.0,5.6,"HIGH",null,"Y","1","SCREENING","2024-05-18","-14"],["GLPX1","LB","GLPX1-101-071","4","GLUC","Glucose","10.8","mmol/L","10.8",10.8,"mmol/L",3.9,5.6,3.9,5.6,"HIGH",null,"Y","1","SCREENING","2024-05-20","-12"],["GLPX1","LB","GLPX1-101-071","5","ALT","Alanine Aminotransferase","32","U/L","32",32.0,"U/L",7.0,35.0,7.0,35.0,"NORMAL",null,null,"2","BASELINE","2024-06-02","2"],["GLPX1","LB","GLPX1-101-071","6","CREAT","Creatinine","68","umol/L","68",68.0,"umol/L",44.0,80.0,44.0,80.0,"NORMAL",null,null,"2","BASELINE","2024-06-04","4"],["GLPX1","LB","GLPX1-101-071","7","GLUC","Glucose","9.3","mmol/L","9.3",9.3,"mmol/L",3.9,5.6,3.9,5.6,"HIGH",null,null,"2","BASELINE","2024-06-04","4"],["GLPX1","LB","GLPX1-101-071","8","HBA1C","Hemoglobin A1C","9.2","%","9.2",9.2,"%",4.0,5.6,4.0,5.6,"HIGH",null,null,"2","BASELINE","2024-06-04","4"],["GLPX1","LB","GLPX1-101-071","9","CREAT","Creatinine","76","umol/L","76",76.0,"umol/L",44.0,80.0,44.0,80.0,"NORMAL",null,null,"3","WEEK 4","2024-06-28","28"],["GLPX1","LB","GLPX1-101-071","10","GLUC","Glucose","10.6","mmol/L","10.6",10.6,"mmol/L",3.9,5.6,3.9,5.6,"HIGH",null,null,"3","WEEK 4","2024-06-28","28"],["GLPX1","LB","GLPX1-101-071","11","HBA1C","Hemoglobin A1C","8.9","%","8.9",8.9,"%",4.0,5.6,4.0,5.6,"HIGH",null,null,"3","WEEK 4","2024-06-28","28"],["GLPX1","LB","GLPX1-101-071","12","ALT","Alanine Aminotransferase","40","U/L","40",40.0,"U/L",7.0,35.0,7.0,35.0,"HIGH",null,null,"3","WEEK 4","2024-07-02","32"],["GLPX1","LB","GLPX1-101-071","13","ALT","Alanine Aminotransferase","33","U/L","33",33.0,"U/L",7.0,35.0,7.0,35.0,"NORMAL",null,null,"4","WEEK 8","2024-07-26","56"],["GLPX1","LB","GLPX1-101-071","14","HBA1C","Hemoglobin A1C","8.7","%","8.7",8.7,"%",4.0,5.6,4.0,5.6,"HIGH",null,null,"4","WEEK 8","2024-07-29","59"],["GLPX1","LB","GLPX1-101-071","15","CREAT","Creatinine","72","umol/L","72",72.0,"umol/L",44.0,80.0,44.0,80.0,"NORMAL",null,null,"4","WEEK 8","2024-07-30","60"],["GLPX1","LB","GLPX1-101-071","16","GLUC","Glucose","10.6","mmol/L","10.6",10.6,"mmol/L",3.9,5.6,3.9,5.6,"HIGH",null,null,"4","WEEK 8","2024-07-30","60"],["GLPX1","LB","GLPX1-101-071","17","GLUC","Glucose","8.9","mmol/L","8.9",8.9,"mmol/L",3.9,5.6,3.9,5.6,"HIGH",null,null,"5","WEEK 12","2024-08-23","84"],["GLPX1","LB","GLPX1-101-071","18","ALT","Alanine Aminotransferase","37","U/L","37",37.0,"U/L",7.0,35.0,7.0,35.0,"HIGH",null,null,"5","WEEK 12","2024-08-24","85"],["GLPX1","LB","GLPX1-101-071","19","CREAT","Creatinine","71","umol/L","71",71.0,"umol/L",44.0,80.0,44.0,80.0,"NORMAL",null,null,"5","WEEK 12","2024-08-24","85"],["GLPX1","LB","GLPX1-101-071","20","HBA1C","Hemoglobin A1C","9","%","9",9.0,"%",4.0,5.6,4.0,5.6,"HIGH",null,null,"5","WEEK 12","2024-08-27","88"],["GLPX1","LB","GLPX1-101-071","21","CREAT","Creatinine","69","umol/L","69",69.0,"umol/L",44.0,80.0,44.0,80.0,"NORMAL",null,null,"6","WEEK 16","2024-09-23","115"],["GLPX1","LB","GLPX1-101-071","22","HBA1C","Hemoglobin A1C","9.6","%","9.6",9.6,"%",4.0,5.6,4.0,5.6,"HIGH",null,null,"6","WEEK 16","2024-09-23","115"],["GLPX1","LB","GLPX1-101-071","23","ALT","Alanine Aminotransferase","20","U/L","20",20.0,"U/L",7.0,35.0,7.0,35.0,"NORMAL",null,null,"6","WEEK 16","2024-09-24","116"],["GLPX1","LB","GLPX1-101-071","24","GLUC","Glucose","12.5","mmol/L","12.5",12.5,"mmol/L",3.9,5.6,3.9,5.6,"HIGH",null,null,"6","WEEK 16","2024-09-24","116"],["GLPX1","LB","GLPX1-101-071","25","ALT","Alanine Aminotransferase","25","U/L","25",25.0,"U/L",7.0,35.0,7.0,35.0,"NORMAL",null,null,"7","WEEK 20","2024-10-18","140"],["GLPX1","LB","GLPX1-101-071","26","GLUC","Glucose","8.7","mmol/L","8.7",8.7,"mmol/L",3.9,5.6,3.9,5.6,"HIGH",null,null,"7","WEEK 20","2024-10-18","140"],["GLPX1","LB","GLPX1-101-071","27","CREAT","Creatinine","61","umol/L","61",61.0,"umol/L",44.0,80.0,44.0,80.0,"NORMAL",null,null,"7","WEEK 20","2024-10-20","142"],["GLPX1","LB","GLPX1-101-071","28","HBA1C","Hemoglobin A1C","9.2","%","9.2",9.2,"%",4.0,5.6,4.0,5.6,"HIGH",null,null,"7","WEEK 20","2024-10-22","144"],["GLPX1","LB","GLPX1-101-071","29","ALT","Alanine Aminotransferase","14","U/L","14",14.0,"U/L",7.0,35.0,7.0,35.0,"NORMAL",null,null,"8","WEEK 26","2024-11-28","181"],["GLPX1","LB","GLPX1-101-071","30","CREAT","Creatinine","53","umol/L","53",53.0,"umol/L",44.0,80.0,44.0,80.0,"NORMAL",null,null,"8","WEEK 26","2024-11-29","182"],["GLPX1","LB","GLPX1-101-071","31","GLUC","Glucose","6.9","mmol/L","6.9",6.9,"mmol/L",3.9,5.6,3.9,5.6,"HIGH",null,null,"8","WEEK 26","2024-11-29","182"],["GLPX1","LB","GLPX1-101-071","32","HBA1C","Hemoglobin A1C","8.6","%","8.6",8.6,"%",4.0,5.6,4.0,5.6,"HIGH",null,null,"8","WEEK 26","2024-11-30","183"],["GLPX1","LB","GLPX1-101-104","1","CREAT","Creatinine","58","umol/L","58",58.0,"umol/L",44.0,80.0,44.0,80.0,"NORMAL",null,"Y","1","SCREENING","2024-05-08","-16"],["GLPX1","LB","GLPX1-101-104","2","ALT","Alanine Aminotransferase","27","U/L","27",27.0,"U/L",7.0,35.0,7.0,35.0,"NORMAL",null,"Y","1","SCREENING","2024-05-11","-13"],["GLPX1","LB","GLPX1-101-104","3","GLUC","Glucose","9","mmol/L","9",9.0,"mmol/L",3.9,5.6,3.9,5.6,"HIGH",null,"Y","1","SCREENING","2024-05-12","-12"],["GLPX1","LB","GLPX1-101-104","4","HBA1C","Hemoglobin A1C","8.7","%","8.7",8.7,"%",4.0,5.6,4.0,5.6,"HIGH",null,"Y","1","SCREENING","2024-05-12","-12"],["GLPX1","LB","GLPX1-101-104","5","ALT","Alanine Aminotransferase","24","U/L","24",24.0,"U/L",7.0,35.0,7.0,35.0,"NORMAL",null,null,"2","BASELINE","2024-05-24","1"],["GLPX1","LB","GLPX1-101-104","6","CREAT","Creatinine","82","umol/L","82",82.0,"umol/L",44.0,80.0,44.0,80.0,"HIGH",null,null,"2","BASELINE","2024-05-25","2"],["GLPX1","LB","GLPX1-101-104","7","HBA1C","Hemoglobin A1C","8.5","%","8.5",8.5,"%",4.0,5.6,4.0,5.6,"HIGH",null,null,"2","BASELINE","2024-05-25","2"],["GLPX1","LB","GLPX1-101-104","8","GLUC","Glucose","9.6","mmol/L","9.6",9.6,"mmol/L",3.9,5.6,3.9,5.6,"HIGH",null,null,"2","BASELINE","2024-05-27","4"],["GLPX1","LB","GLPX1-101-104","9","CREAT","Creatinine","70","umol/L","70",70.0,"umol/L",44.0,80.0,44.0,80.0,"NORMAL",null,null,"3","WEEK 4","2024-06-21","29"],["GLPX1","LB","GLPX1-101-104","10","ALT","Alanine Aminotransferase","23","U/L","23",23.0,"U/L",7.0,35.0,7.0,35.0,"NORMAL",null,null,"3","WEEK 4","2024-06-22","30"],["GLPX1","LB","GLPX1-101-104","11","HBA1C","Hemoglobin A1C","8.9","%","8.9",8.9,"%",4.0,5.6,4.0,5.6,"HIGH",null,null,"3","WEEK 4","2024-06-22","30"],["GLPX1","LB","GLPX1-101-104","12","GLUC","Glucose","8.6","mmol/L","8.6",8.6,"mmol/L",3.9,5.6,3.9,5.6,"HIGH",null,null,"3","WEEK 4","2024-06-24","32"],["GLPX1","LB","GLPX1-101-104","13","ALT","Alanine Aminotransferase","23","U/L","23",23.0,"U/L",7.0,35.0,7.0,35.0,"NORMAL",null,null,"4","WEEK 8","2024-07-18","56"],["GLPX1","LB","GLPX1-101-104","14","CREAT","Creatinine","70","umol/L","70",70.0,"umol/L",44.0,80.0,44.0,80.0,"NORMAL",null,null,"4","WEEK 8","2024-07-18","56"],["GLPX1","LB","GLPX1-101-104","15","HBA1C","Hemoglobin A1C","8.2","%","8.2",8.2,"%",4.0,5.6,4.0,5.6,"HIGH",null,null,"4","WEEK 8","2024-07-20","58"],["GLPX1","LB","GLPX1-101-104","16","GLUC","Glucose","8","mmol/L","8",8.0,"mmol/L",3.9,5.6,3.9,5.6,"HIGH",null,null,"4","WEEK 8","2024-07-22","60"],["GLPX1","LB","GLPX1-101-104","17","HBA1C","Hemoglobin A1C","8.4","%","8.4",8.4,"%",4.0,5.6,4.0,5.6,"HIGH",null,null,"5","WEEK 12","2024-08-16","85"],["GLPX1","LB","GLPX1-101-104","18","CREAT","Creatinine","51","umol/L","51",51.0,"umol/L",44.0,80.0,44.0,80.0,"NORMAL",null,null,"5","WEEK 12","2024-08-18","87"],["GLPX1","LB","GLPX1-101-104","19","GLUC","Glucose","8.6","mmol/L","8.6",8.6,"mmol/L",3.9,5.6,3.9,5.6,"HIGH",null,null,"5","WEEK 12","2024-08-18","87"],["GLPX1","LB","GLPX1-101-104","20","ALT","Alanine Aminotransferase","29","U/L","29",29.0,"U/L",7.0,35.0,7.0,35.0,"NORMAL",null,null,"5","WEEK 12","2024-08-19","88"],["GLPX1","LB","GLPX1-101-104","21","CREAT","Creatinine","70","umol/L","70",70.0,"umol/L",44.0,80.0,44.0,80.0,"NORMAL",null,null,"6","WEEK 16","2024-09-12","112"],["GLPX1","LB","GLPX1-101-104","22","ALT","Alanine Aminotransferase","29","U/L","29",29.0,"U/L",7.0,35.0,7.0,35.0,"NORMAL",null,null,"6","WEEK 16","2024-09-13","113"],["GLPX1","LB","GLPX1-101-104","23","GLUC","Glucose","8.1","mmol/L","8.1",8.1,"mmol/L",3.9,5.6,3.9,5.6,"HIGH",null,null,"6","WEEK 16","2024-09-16","116"],["GLPX1","LB","GLPX1-101-104","24","HBA1C","Hemoglobin A1C","7.9","%","7.9",7.9,"%",4.0,5.6,4.0,5.6,"HIGH",null,null,"6","WEEK 16","2024-09-16","116"],["GLPX1","LB","GLPX1-101-104","25","GLUC","Glucose","7","mmol/L","7",7.0,"mmol/L",3.9,5.6,3.9,5.6,"HIGH",null,null,"7","WEEK 20","2024-10-10","140"],["GLPX1","LB","GLPX1-101-104","26","CREAT","Creatinine","58","umol/L","58",58.0,"umol/L",44.0,80.0,44.0,80.0,"NORMAL",null,null,"7","WEEK 20","2024-10-11","141"],["GLPX1","LB","GLPX1-101-104","27","ALT","Alanine Aminotransferase","40","U/L","40",40.0,"U/L",7.0,35.0,7.0,35.0,"HIGH",null,null,"7","WEEK 20","2024-10-13","143"],["GLPX1","LB","GLPX1-101-104","28","HBA1C","Hemoglobin A1C","7.7","%","7.7",7.7,"%",4.0,5.6,4.0,5.6,"HIGH",null,null,"7","WEEK 20","2024-10-13","143"],["GLPX1","LB","GLPX1-101-104","29","ALT","Alanine Aminotransferase","35","U/L","35",35.0,"U/L",7.0,35.0,7.0,35.0,"NORMAL",null,null,"8","WEEK 26","2024-11-20","181"],["GLPX1","LB","GLPX1-101-104","30","CREAT","Creatinine","60","umol/L","60",60.0,"umol/L",44.0,80.0,44.0,80.0,"NORMAL",null,null,"8","WEEK 26","2024-11-24","185"],["GLPX1","LB","GLPX1-101-104","31","GLUC","Glucose","4.7","mmol/L","4.7",4.7,"mmol/L",3.9,5.6,3.9,5.6,"NORMAL",null,null,"8","WEEK 26","2024-11-24","185"],["GLPX1","LB","GLPX1-101-104","32","HBA1C","Hemoglobin A1C","7.9","%","7.9",7.9,"%",4.0,5.6,4.0,5.6,"HIGH",null,null,"8","WEEK 26","2024-11-24","185"],["GLPX1","LB","GLPX1-101-139","1","ALT","Alanine Aminotransferase","37","U/L","37",37.0,"U/L",7.0,35.0,7.0,35.0,"HIGH",null,"Y","1","SCREENING","2024-06-28","-13"],["GLPX1","LB","GLPX1-101-139","2","CREAT","Creatinine","52","umol/L","52",52.0,"umol/L",44.0,80.0,44.0,80.0,"NORMAL",null,"Y","1","SCREENING","2024-06-28","-13"],["GLPX1","LB","GLPX1-101-139","3","GLUC","Glucose","8.8","mmol/L","8.8",8.8,"mmol/L",3.9,5.6,3.9,5.6,"HIGH",null,"Y","1","SCREENING","2024-06-28","-13"],["GLPX1","LB","GLPX1-101-139","4","HBA1C","Hemoglobin A1C","8.2","%","8.2",8.2,"%",4.0,5.6,4.0,5.6,"HIGH",null,"Y","1","SCREENING","2024-06-29","-12"],["GLPX1","LB","GLPX1-101-139","5","HBA1C","Hemoglobin A1C","8.3","%","8.3",8.3,"%",4.0,5.6,4.0,5.6,"HIGH",null,null,"2","BASELINE","2024-07-11","1"],["GLPX1","LB","GLPX1-101-139","6","ALT","Alanine Aminotransferase","29","U/L","29",29.0,"U/L",7.0,35.0,7.0,35.0,"NORMAL",null,null,"2","BASELINE","2024-07-12","2"],["GLPX1","LB","GLPX1-101-139","7","CREAT","Creatinine","67","umol/L","67",67.0,"umol/L",44.0,80.0,44.0,80.0,"NORMAL",null,null,"2","BASELINE","2024-07-12","2"],["GLPX1","LB","GLPX1-101-139","8","GLUC","Glucose","8.6","mmol/L","8.6",8.6,"mmol/L",3.9,5.6,3.9,5.6,"HIGH",null,null,"2","BASELINE","2024-07-13","3"],["GLPX1","LB","GLPX1-101-139","9","ALT","Alanine Aminotransferase","45","U/L","45",45.0,"U/L",7.0,35.0,7.0,35.0,"HIGH",null,null,"3","WEEK 4","2024-08-07","28"],["GLPX1","LB","GLPX1-101-139","10","HBA1C","Hemoglobin A1C","8","%","8",8.0,"%",4.0,5.6,4.0,5.6,"HIGH",null,null,"3","WEEK 4","2024-08-08","29"],["GLPX1","LB","GLPX1-101-139","11","GLUC","Glucose","9.1","mmol/L","9.1",9.1,"mmol/L",3.9,5.6,3.9,5.6,"HIGH",null,null,"3","WEEK 4","2024-08-09","30"],["GLPX1","LB","GLPX1-101-139","12","CREAT","Creatinine","65","umol/L","65",65.0,"umol/L",44.0,80.0,44.0,80.0,"NORMAL",null,null,"3","WEEK 4","2024-08-11","32"],["GLPX1","LB","GLPX1-101-139","13","ALT","Alanine Aminotransferase","31","U/L","31",31.0,"U/L",7.0,35.0,7.0,35.0,"NORMAL",null,null,"4","WEEK 8","2024-09-04","56"],["GLPX1","LB","GLPX1-101-139","14","GLUC","Glucose","10.6","mmol/L","10.6",10.6,"mmol/L",3.9,5.6,3.9,5.6,"HIGH",null,null,"4","WEEK 8","2024-09-04","56"],["GLPX1","LB","GLPX1-101-139","15","HBA1C","Hemoglobin A1C","7.7","%","7.7",7.7,"%",4.0,5.6,4.0,5.6,"HIGH",null,null,"4","WEEK 8","2024-09-06","58"],["GLPX1","LB","GLPX1-101-139","16","CREAT","Creatinine","66","umol/L","66",66.0,"umol/L",44.0,80.0,44.0,80.0,"NORMAL",null,null,"4","WEEK 8","2024-09-08","60"],["GLPX1","LB","GLPX1-101-147","1","ALT","Alanine Aminotransferase","24","U/L","24",24.0,"U/L",7.0,35.0,7.0,35.0,"NORMAL",null,"Y","1","SCREENING","2024-02-22","-16"],["GLPX1","LB","GLPX1-101-147","2","CREAT","Creatinine","63","umol/L","63",63.0,"umol/L",44.0,80.0,44.0,80.0,"NORMAL",null,"Y","1","SCREENING","2024-02-22","-16"],["GLPX1","LB","GLPX1-101-147","3","GLUC","Glucose","9.1","mmol/L","9.1",9.1,"mmol/L",3.9,5.6,3.9,5.6,"HIGH",null,"Y","1","SCREENING","2024-02-22","-16"],["GLPX1","LB","GLPX1-101-147","4","HBA1C","Hemoglobin A1C","8.4","%","8.4",8.4,"%",4.0,5.6,4.0,5.6,"HIGH",null,"Y","1","SCREENING","2024-02-22","-16"],["GLPX1","LB","GLPX1-101-147","5","HBA1C","Hemoglobin A1C","8.2","%","8.2",8.2,"%",4.0,5.6,4.0,5.6,"HIGH",null,null,"2","BASELINE","2024-03-09","1"],["GLPX1","LB","GLPX1-101-147","6","ALT","Alanine Aminotransferase","28","U/L","28",28.0,"U/L",7.0,35.0,7.0,35.0,"NORMAL",null,null,"2","BASELINE","2024-03-10","2"],["GLPX1","LB","GLPX1-101-147","7","CREAT","Creatinine","76","umol/L","76",76.0,"umol/L",44.0,80.0,44.0,80.0,"NORMAL",null,null,"2","BASELINE","2024-03-12","4"],["GLPX1","LB","GLPX1-101-147","8","GLUC","Glucose","9.2","mmol/L","9.2",9.2,"mmol/L",3.9,5.6,3.9,5.6,"HIGH",null,null,"2","BASELINE","2024-03-12","4"],["GLPX1","LB","GLPX1-101-147","9","HBA1C","Hemoglobin A1C","8","%","8",8.0,"%",4.0,5.6,4.0,5.6,"HIGH",null,null,"3","WEEK 4","2024-04-06","29"],["GLPX1","LB","GLPX1-101-147","10","CREAT","Creatinine","66","umol/L","66",66.0,"umol/L",44.0,80.0,44.0,80.0,"NORMAL",null,null,"3","WEEK 4","2024-04-08","31"],["GLPX1","LB","GLPX1-101-147","11","ALT","Alanine Aminotransferase","29","U/L","29",29.0,"U/L",7.0,35.0,7.0,35.0,"NORMAL",null,null,"3","WEEK 4","2024-04-09","32"],["GLPX1","LB","GLPX1-101-147","12","GLUC","Glucose","7.3","mmol/L","7.3",7.3,"mmol/L",3.9,5.6,3.9,5.6,"HIGH",null,null,"3","WEEK 4","2024-04-09","32"],["GLPX1","LB","GLPX1-101-147","13","ALT","Alanine Aminotransferase","33","U/L","33",33.0,"U/L",7.0,35.0,7.0,35.0,"NORMAL",null,null,"4","WEEK 8","2024-05-04","57"],["GLPX1","LB","GLPX1-101-147","14","GLUC","Glucose","8.2","mmol/L","8.2",8.2,"mmol/L",3.9,5.6,3.9,5.6,"HIGH",null,null,"4","WEEK 8","2024-05-05","58"],["GLPX1","LB","GLPX1-101-147","15","HBA1C","Hemoglobin A1C","8","%","8",8.0,"%",4.0,5.6,4.0,5.6,"HIGH",null,null,"4","WEEK 8","2024-05-05","58"],["GLPX1","LB","GLPX1-101-147","16","CREAT","Creatinine","77","umol/L","77",77.0,"umol/L",44.0,80.0,44.0,80.0,"NORMAL",null,null,"4","WEEK 8","2024-05-06","59"],["GLPX1","LB","GLPX1-101-147","17","ALT","Alanine Aminotransferase","11","U/L","11",11.0,"U/L",7.0,35.0,7.0,35.0,"NORMAL",null,null,"5","WEEK 12","2024-06-02","86"],["GLPX1","LB","GLPX1-101-147","18","HBA1C","Hemoglobin A1C","7.4","%","7.4",7.4,"%",4.0,5.6,4.0,5.6,"HIGH",null,null,"5","WEEK 12","2024-06-03","87"],["GLPX1","LB","GLPX1-101-147","19","CREAT","Creatinine","78","umol/L","78",78.0,"umol/L",44.0,80.0,44.0,80.0,"NORMAL",null,null,"5","WEEK 12","2024-06-04","88"],["GLPX1","LB","GLPX1-101-147","20","GLUC","Glucose","7.8","mmol/L","7.8",7.8,"mmol/L",3.9,5.6,3.9,5.6,"HIGH",null,null,"5","WEEK 12","2024-06-04","88"],["GLPX1","LB","GLPX1-101-147","21","ALT","Alanine Aminotransferase","34","U/L","34",34.0,"U/L",7.0,35.0,7.0,35.0,"NORMAL",null,null,"6","WEEK 16","2024-06-30","114"],["GLPX1","LB","GLPX1-101-147","22","CREAT","Creatinine","66","umol/L","66",66.0,"umol/L",44.0,80.0,44.0,80.0,"NORMAL",null,null,"6","WEEK 16","2024-06-30","114"],["GLPX1","LB","GLPX1-101-147","23","GLUC","Glucose","9","mmol/L","9",9.0,"mmol/L",3.9,5.6,3.9,5.6,"HIGH",null,null,"6","WEEK 16","2024-06-30","114"],["GLPX1","LB","GLPX1-101-147","24","HBA1C","Hemoglobin A1C","7.2","%","7.2",7.2,"%",4.0,5.6,4.0,5.6,"HIGH",null,null,"6","WEEK 16","2024-07-01","115"],["GLPX1","LB","GLPX1-101-147","25","CREAT","Creatinine","56","umol/L","56",56.0,"umol/L",44.0,80.0,44.0,80.0,"NORMAL",null,null,"7","WEEK 20","2024-07-27","141"],["GLPX1","LB","GLPX1-101-147","26","GLUC","Glucose","7.6","mmol/L","7.6",7.6,"mmol/L",3.9,5.6,3.9,5.6,"HIGH",null,null,"7","WEEK 20","2024-07-28","142"],["GLPX1","LB","GLPX1-101-147","27","ALT","Alanine Aminotransferase","20","U/L","20",20.0,"U/L",7.0,35.0,7.0,35.0,"NORMAL",null,null,"7","WEEK 20","2024-07-30","144"],["GLPX1","LB","GLPX1-101-147","28","HBA1C","Hemoglobin A1C","7.1","%","7.1",7.1,"%",4.0,5.6,4.0,5.6,"HIGH",null,null,"7","WEEK 20","2024-07-30","144"],["GLPX1","LB","GLPX1-101-147","29","ALT","Alanine Aminotransferase","20","U/L","20",20.0,"U/L",7.0,35.0,7.0,35.0,"NORMAL",null,null,"8","WEEK 26","2024-09-05","181"],["GLPX1","LB","GLPX1-101-147","30","GLUC","Glucose","7.5","mmol/L","7.5",7.5,"mmol/L",3.9,5.6,3.9,5.6,"HIGH",null,null,"8","WEEK 26","2024-09-05","181"],["GLPX1","LB","GLPX1-101-147","31","CREAT","Creatinine","62","umol/L","62",62.0,"umol/L",44.0,80.0,44.0,80.0,"NORMAL",null,null,"8","WEEK 26","2024-09-08","184"],["GLPX1","LB","GLPX1-101-147","32","HBA1C","Hemoglobin A1C","6.7","%","6.7",6.7,"%",4.0,5.6,4.0,5.6,"HIGH",null,null,"8","WEEK 26","2024-09-09","185"],["GLPX1","LB","GLPX1-101-176","1","GLUC","Glucose","9.6","mmol/L","9.6",9.6,"mmol/L",3.9,5.6,3.9,5.6,"HIGH",null,"Y","1","SCREENING","2024-05-11","-16"],["GLPX1","LB","GLPX1-101-176","2","ALT","Alanine Aminotransferase","22","U/L","22",22.0,"U/L",7.0,35.0,7.0,35.0,"NORMAL",null,"Y","1","SCREENING","2024-05-12","-15"],["GLPX1","LB","GLPX1-101-176","3","HBA1C","Hemoglobin A1C","8.9","%","8.9",8.9,"%",4.0,5.6,4.0,5.6,"HIGH",null,"Y","1","SCREENING","2024-05-14","-13"],["GLPX1","LB","GLPX1-101-176","4","CREAT","Creatinine","46","umol/L","46",46.0,"umol/L",44.0,80.0,44.0,80.0,"NORMAL",null,"Y","1","SCREENING","2024-05-15","-12"],["GLPX1","LB","GLPX1-101-176","5","ALT","Alanine Aminotransferase","22","U/L","22",22.0,"U/L",7.0,35.0,7.0,35.0,"NORMAL",null,null,"2","BASELINE","2024-05-27","1"],["GLPX1","LB","GLPX1-101-176","6","CREAT","Creatinine","61","umol/L","61",61.0,"umol/L",44.0,80.0,44.0,80.0,"NORMAL",null,null,"2","BASELINE","2024-05-27","1"],["GLPX1","LB","GLPX1-101-176","7","GLUC","Glucose","8.4","mmol/L","8.4",8.4,"mmol/L",3.9,5.6,3.9,5.6,"HIGH",null,null,"2","BASELINE","2024-05-30","4"],["GLPX1","LB","GLPX1-101-176","8","HBA1C","Hemoglobin A1C","9","%","9",9.0,"%",4.0,5.6,4.0,5.6,"HIGH",null,null,"2","BASELINE","2024-05-30","4"],["GLPX1","LB","GLPX1-101-176","9","GLUC","Glucose","10.9","mmol/L","10.9",10.9,"mmol/L",3.9,5.6,3.9,5.6,"HIGH",null,null,"3","WEEK 4","2024-06-23","28"],["GLPX1","LB","GLPX1-101-176","10","CREAT","Creatinine","83","umol/L","83",83.0,"umol/L",44.0,80.0,44.0,80.0,"HIGH",null,null,"3","WEEK 4","2024-06-25","30"],["GLPX1","LB","GLPX1-101-176","11","HBA1C","Hemoglobin A1C","8.7","%","8.7",8.7,"%",4.0,5.6,4.0,5.6,"HIGH",null,null,"3","WEEK 4","2024-06-25","30"],["GLPX1","LB","GLPX1-101-176","12","ALT","Alanine Aminotransferase","44","U/L","44",44.0,"U/L",7.0,35.0,7.0,35.0,"HIGH",null,null,"3","WEEK 4","2024-06-27","32"],["GLPX1","LB","GLPX1-101-176","13","ALT","Alanine Aminotransferase","24","U/L","24",24.0,"U/L",7.0,35.0,7.0,35.0,"NORMAL",null,null,"4","WEEK 8","2024-07-22","57"],["GLPX1","LB","GLPX1-101-176","14","GLUC","Glucose","9.1","mmol/L","9.1",9.1,"mmol/L",3.9,5.6,3.9,5.6,"HIGH",null,null,"4","WEEK 8","2024-07-22","57"],["GLPX1","LB","GLPX1-101-176","15","CREAT","Creatinine","64","umol/L","64",64.0,"umol/L",44.0,80.0,44.0,80.0,"NORMAL",null,null,"4","WEEK 8","2024-07-23","58"],["GLPX1","LB","GLPX1-101-176","16","HBA1C","Hemoglobin A1C","8.8","%","8.8",8.8,"%",4.0,5.6,4.0,5.6,"HIGH",null,null,"4","WEEK 8","2024-07-25","60"],["GLPX1","LB","GLPX1-101-176","17","CREAT","Creatinine","68","umol/L","68",68.0,"umol/L",44.0,80.0,44.0,80.0,"NORMAL",null,null,"5","WEEK 12","2024-08-20","86"],["GLPX1","LB","GLPX1-101-176","18","ALT","Alanine Aminotransferase","31","U/L","31",31.0,"U/L",7.0,35.0,7.0,35.0,"NORMAL",null,null,"5","WEEK 12","2024-08-21","87"],["GLPX1","LB","GLPX1-101-176","19","HBA1C","Hemoglobin A1C","9","%","9",9.0,"%",4.0,5.6,4.0,5.6,"HIGH",null,null,"5","WEEK 12","2024-08-21","87"],["GLPX1","LB","GLPX1-101-176","20","GLUC","Glucose","9.5","mmol/L","9.5",9.5,"mmol/L",3.9,5.6,3.9,5.6,"HIGH",null,null,"5","WEEK 12","2024-08-22","88"],["GLPX1","LB","GLPX1-101-176","21","ALT","Alanine Aminotransferase","25","U/L","25",25.0,"U/L",7.0,35.0,7.0,35.0,"NORMAL",null,null,"6","WEEK 16","2024-09-15","112"],["GLPX1","LB","GLPX1-101-176","22","CREAT","Creatinine","59","umol/L","59",59.0,"umol/L",44.0,80.0,44.0,80.0,"NORMAL",null,null,"6","WEEK 16","2024-09-17","114"],["GLPX1","LB","GLPX1-101-176","23","GLUC","Glucose","9","mmol/L","9",9.0,"mmol/L",3.9,5.6,3.9,5.6,"HIGH",null,null,"6","WEEK 16","2024-09-17","114"],["GLPX1","LB","GLPX1-101-176","24","HBA1C","Hemoglobin A1C","8.7","%","8.7",8.7,"%",4.0,5.6,4.0,5.6,"HIGH",null,null,"6","WEEK 16","2024-09-17","114"],["GLPX1","LB","GLPX1-101-176","25","GLUC","Glucose","10.5","mmol/L","10.5",10.5,"mmol/L",3.9,5.6,3.9,5.6,"HIGH",null,null,"7","WEEK 20","2024-10-13","140"],["GLPX1","LB","GLPX1-101-176","26","HBA1C","Hemoglobin A1C","8.8","%","8.8",8.8,"%",4.0,5.6,4.0,5.6,"HIGH",null,null,"7","WEEK 20","2024-10-13","140"],["GLPX1","LB","GLPX1-101-176","27","ALT","Alanine Aminotransferase","23","U/L","23",23.0,"U/L",7.0,35.0,7.0,35.0,"NORMAL",null,null,"7","WEEK 20","2024-10-17","144"],["GLPX1","LB","GLPX1-101-176","28","CREAT","Creatinine","51","umol/L","51",51.0,"umol/L",44.0,80.0,44.0,80.0,"NORMAL",null,null,"7","WEEK 20","2024-10-17","144"],["GLPX1","LB","GLPX1-101-176","29","CREAT","Creatinine","51","umol/L","51",51.0,"umol/L",44.0,80.0,44.0,80.0,"NORMAL",null,null,"8","WEEK 26","2024-11-24","182"],["GLPX1","LB","GLPX1-101-176","30","HBA1C","Hemoglobin A1C","8.5","%","8.5",8.5,"%",4.0,5.6,4.0,5.6,"HIGH",null,null,"8","WEEK 26","2024-11-24","182"],["GLPX1","LB","GLPX1-101-176","31","ALT","Alanine Aminotransferase","18","U/L","18",18.0,"U/L",7.0,35.0,7.0,35.0,"NORMAL",null,null,"8","WEEK 26","2024-11-27","185"],["GLPX1","LB","GLPX1-101-176","32","GLUC","Glucose","8.7","mmol/L","8.7",8.7,"mmol/L",3.9,5.6,3.9,5.6,"HIGH",null,null,"8","WEEK 26","2024-11-27","185"],["GLPX1","LB","GLPX1-101-194","1","ALT","Alanine Aminotransferase","22","U/L","22",22.0,"U/L",10.0,40.0,10.0,40.0,"NORMAL",null,"Y","1","SCREENING","2024-04-14","-15"],["GLPX1","LB","GLPX1-101-194","2","HBA1C","Hemoglobin A1C","7.1","%","7.1",7.1,"%",4.0,5.6,4.0,5.6,"HIGH",null,"Y","1","SCREENING","2024-04-14","-15"],["GLPX1","LB","GLPX1-101-194","3","CREAT","Creatinine","74","umol/L","74",74.0,"umol/L",62.0,106.0,62.0,106.0,"NORMAL",null,"Y","1","SCREENING","2024-04-17","-12"],["GLPX1","LB","GLPX1-101-194","4","GLUC","Glucose","9.9","mmol/L","9.9",9.9,"mmol/L",3.9,5.6,3.9,5.6,"HIGH",null,"Y","1","SCREENING","2024-04-17","-12"],["GLPX1","LB","GLPX1-101-194","5","ALT","Alanine Aminotransferase","37","U/L","37",37.0,"U/L",10.0,40.0,10.0,40.0,"NORMAL",null,null,"2","BASELINE","2024-04-29","1"],["GLPX1","LB","GLPX1-101-194","6","CREAT","Creatinine","67","umol/L","67",67.0,"umol/L",62.0,106.0,62.0,106.0,"NORMAL",null,null,"2","BASELINE","2024-04-29","1"],["GLPX1","LB","GLPX1-101-194","7","GLUC","Glucose","12.5","mmol/L","12.5",12.5,"mmol/L",3.9,5.6,3.9,5.6,"HIGH",null,null,"2","BASELINE","2024-04-30","2"],["GLPX1","LB","GLPX1-101-194","8","HBA1C","Hemoglobin A1C","7.8","%","7.8",7.8,"%",4.0,5.6,4.0,5.6,"HIGH",null,null,"2","BASELINE","2024-04-30","2"],["GLPX1","LB","GLPX1-101-194","9","CREAT","Creatinine","68","umol/L","68",68.0,"umol/L",62.0,106.0,62.0,106.0,"NORMAL",null,null,"3","WEEK 4","2024-05-26","28"],["GLPX1","LB","GLPX1-101-194","10","HBA1C","Hemoglobin A1C","7.1","%","7.1",7.1,"%",4.0,5.6,4.0,5.6,"HIGH",null,null,"3","WEEK 4","2024-05-27","29"],["GLPX1","LB","GLPX1-101-194","11","GLUC","Glucose","9.2","mmol/L","9.2",9.2,"mmol/L",3.9,5.6,3.9,5.6,"HIGH",null,null,"3","WEEK 4","2024-05-28","30"],["GLPX1","LB","GLPX1-101-194","12","ALT","Alanine Aminotransferase","32","U/L","32",32.0,"U/L",10.0,40.0,10.0,40.0,"NORMAL",null,null,"3","WEEK 4","2024-05-30","32"],["GLPX1","LB","GLPX1-101-194","13","GLUC","Glucose","8.3","mmol/L","8.3",8.3,"mmol/L",3.9,5.6,3.9,5.6,"HIGH",null,null,"4","WEEK 8","2024-06-24","57"],["GLPX1","LB","GLPX1-101-194","14","ALT","Alanine Aminotransferase","20","U/L","20",20.0,"U/L",10.0,40.0,10.0,40.0,"NORMAL",null,null,"4","WEEK 8","2024-06-25","58"],["GLPX1","LB","GLPX1-101-194","15","HBA1C","Hemoglobin A1C","6.7","%","6.7",6.7,"%",4.0,5.6,4.0,5.6,"HIGH",null,null,"4","WEEK 8","2024-06-25","58"],["GLPX1","LB","GLPX1-101-194","16","CREAT","Creatinine","72","umol/L","72",72.0,"umol/L",62.0,106.0,62.0,106.0,"NORMAL",null,null,"4","WEEK 8","2024-06-26","59"],["GLPX1","LB","GLPX1-101-194","17","GLUC","Glucose","10.3","mmol/L","10.3",10.3,"mmol/L",3.9,5.6,3.9,5.6,"HIGH",null,null,"5","WEEK 12","2024-07-22","85"],["GLPX1","LB","GLPX1-101-194","18","CREAT","Creatinine","87","umol/L","87",87.0,"umol/L",62.0,106.0,62.0,106.0,"NORMAL",null,null,"5","WEEK 12","2024-07-23","86"],["GLPX1","LB","GLPX1-101-194","19","HBA1C","Hemoglobin A1C","6.7","%","6.7",6.7,"%",4.0,5.6,4.0,5.6,"HIGH",null,null,"5","WEEK 12","2024-07-23","86"],["GLPX1","LB","GLPX1-101-194","20","ALT","Alanine Aminotransferase","22","U/L","22",22.0,"U/L",10.0,40.0,10.0,40.0,"NORMAL",null,null,"5","WEEK 12","2024-07-25","88"],["GLPX1","LB","GLPX1-101-194","21","GLUC","Glucose","9.9","mmol/L","9.9",9.9,"mmol/L",3.9,5.6,3.9,5.6,"HIGH",null,null,"6","WEEK 16","2024-08-18","112"],["GLPX1","LB","GLPX1-101-194","22","HBA1C","Hemoglobin A1C","6.8","%","6.8",6.8,"%",4.0,5.6,4.0,5.6,"HIGH",null,null,"6","WEEK 16","2024-08-19","113"],["GLPX1","LB","GLPX1-101-194","23","ALT","Alanine Aminotransferase","37","U/L","37",37.0,"U/L",10.0,40.0,10.0,40.0,"NORMAL",null,null,"6","WEEK 16","2024-08-20","114"],["GLPX1","LB","GLPX1-101-194","24","CREAT","Creatinine","86","umol/L","86",86.0,"umol/L",62.0,106.0,62.0,106.0,"NORMAL",null,null,"6","WEEK 16","2024-08-21","115"],["GLPX1","LB","GLPX1-101-194","25","GLUC","Glucose","8.8","mmol/L","8.8",8.8,"mmol/L",3.9,5.6,3.9,5.6,"HIGH",null,null,"7","WEEK 20","2024-09-15","140"],["GLPX1","LB","GLPX1-101-194","26","CREAT","Creatinine","90","umol/L","90",90.0,"umol/L",62.0,106.0,62.0,106.0,"NORMAL",null,null,"7","WEEK 20","2024-09-16","141"],["GLPX1","LB","GLPX1-101-194","27","ALT","Alanine Aminotransferase","18","U/L","18",18.0,"U/L",10.0,40.0,10.0,40.0,"NORMAL",null,null,"7","WEEK 20","2024-09-17","142"],["GLPX1","LB","GLPX1-101-194","28","HBA1C","Hemoglobin A1C","6.3","%","6.3",6.3,"%",4.0,5.6,4.0,5.6,"HIGH",null,null,"7","WEEK 20","2024-09-18","143"],["GLPX1","LB","GLPX1-101-194","29","GLUC","Glucose","8.2","mmol/L","8.2",8.2,"mmol/L",3.9,5.6,3.9,5.6,"HIGH",null,null,"8","WEEK 26","2024-10-28","183"],["GLPX1","LB","GLPX1-101-194","30","HBA1C","Hemoglobin A1C","6.2","%","6.2",6.2,"%",4.0,5.6,4.0,5.6,"HIGH",null,null,"8","WEEK 26","2024-10-28","183"],["GLPX1","LB","GLPX1-101-194","31","CREAT","Creatinine","88","umol/L","88",88.0,"umol/L",62.0,106.0,62.0,106.0,"NORMAL",null,null,"8","WEEK 26","2024-10-29","184"],["GLPX1","LB","GLPX1-101-194","32","ALT","Alanine Aminotransferase","12","U/L","12",12.0,"U/L",10.0,40.0,10.0,40.0,"NORMAL",null,null,"8","WEEK 26","2024-10-30","185"],["GLPX1","LB","GLPX1-101-275","1","ALT","Alanine Aminotransferase","32","U/L","32",32.0,"U/L",10.0,40.0,10.0,40.0,"NORMAL",null,"Y","1","SCREENING","2024-06-16","-15"],["GLPX1","LB","GLPX1-101-275","2","HBA1C","Hemoglobin A1C","7.9","%","7.9",7.9,"%",4.0,5.6,4.0,5.6,"HIGH",null,"Y","1","SCREENING","2024-06-17","-14"],["GLPX1","LB","GLPX1-101-275","3","CREAT","Creatinine","86","umol/L","86",86.0,"umol/L",62.0,106.0,62.0,106.0,"NORMAL",null,"Y","1","SCREENING","2024-06-19","-12"],["GLPX1","LB","GLPX1-101-275","4","GLUC","Glucose","9.6","mmol/L","9.6",9.6,"mmol/L",3.9,5.6,3.9,5.6,"HIGH",null,"Y","1","SCREENING","2024-06-19","-12"],["GLPX1","LB","GLPX1-101-275","5","CREAT","Creatinine","97","umol/L","97",97.0,"umol/L",62.0,106.0,62.0,106.0,"NORMAL",null,null,"2","BASELINE","2024-07-01","1"],["GLPX1","LB","GLPX1-101-275","6","HBA1C","Hemoglobin A1C","7.9","%","7.9",7.9,"%",4.0,5.6,4.0,5.6,"HIGH",null,null,"2","BASELINE","2024-07-01","1"],["GLPX1","LB","GLPX1-101-275","7","ALT","Alanine Aminotransferase","22","U/L","22",22.0,"U/L",10.0,40.0,10.0,40.0,"NORMAL",null,null,"2","BASELINE","2024-07-02","2"],["GLPX1","LB","GLPX1-101-275","8","GLUC","Glucose","9.9","mmol/L","9.9",9.9,"mmol/L",3.9,5.6,3.9,5.6,"HIGH",null,null,"2","BASELINE","2024-07-02","2"],["GLPX1","LB","GLPX1-101-275","9","HBA1C","Hemoglobin A1C","7.6","%","7.6",7.6,"%",4.0,5.6,4.0,5.6,"HIGH",null,null,"3","WEEK 4","2024-07-28","28"],["GLPX1","LB","GLPX1-101-275","10","ALT","Alanine Aminotransferase","9","U/L","9",9.0,"U/L",10.0,40.0,10.0,40.0,"LOW",null,null,"3","WEEK 4","2024-07-29","29"],["GLPX1","LB","GLPX1-101-275","11","GLUC","Glucose","8.6","mmol/L","8.6",8.6,"mmol/L",3.9,5.6,3.9,5.6,"HIGH",null,null,"3","WEEK 4","2024-07-30","30"],["GLPX1","LB","GLPX1-101-275","12","CREAT","Creatinine","75","umol/L","75",75.0,"umol/L",62.0,106.0,62.0,106.0,"NORMAL",null,null,"3","WEEK 4","2024-07-31","31"],["GLPX1","LB","GLPX1-101-275","13","ALT","Alanine Aminotransferase","37","U/L","37",37.0,"U/L",10.0,40.0,10.0,40.0,"NORMAL",null,null,"4","WEEK 8","2024-08-27","58"],["GLPX1","LB","GLPX1-101-275","14","GLUC","Glucose","8.2","mmol/L","8.2",8.2,"mmol/L",3.9,5.6,3.9,5.6,"HIGH",null,null,"4","WEEK 8","2024-08-27","58"],["GLPX1","LB","GLPX1-101-275","15","CREAT","Creatinine","93","umol/L","93",93.0,"umol/L",62.0,106.0,62.0,106.0,"NORMAL",null,null,"4","WEEK 8","2024-08-29","60"],["GLPX1","LB","GLPX1-101-275","16","HBA1C","Hemoglobin A1C","8","%","8",8.0,"%",4.0,5.6,4.0,5.6,"HIGH",null,null,"4","WEEK 8","2024-08-29","60"],["GLPX1","LB","GLPX1-101-275","17","HBA1C","Hemoglobin A1C","7.5","%","7.5",7.5,"%",4.0,5.6,4.0,5.6,"HIGH",null,null,"5","WEEK 12","2024-09-22","84"],["GLPX1","LB","GLPX1-101-275","18","CREAT","Creatinine","78","umol/L","78",78.0,"umol/L",62.0,106.0,62.0,106.0,"NORMAL",null,null,"5","WEEK 12","2024-09-23","85"],["GLPX1","LB","GLPX1-101-275","19","ALT","Alanine Aminotransferase","20","U/L","20",20.0,"U/L",10.0,40.0,10.0,40.0,"NORMAL",null,null,"5","WEEK 12","2024-09-24","86"],["GLPX1","LB","GLPX1-101-275","20","GLUC","Glucose","10.1","mmol/L","10.1",10.1,"mmol/L",3.9,5.6,3.9,5.6,"HIGH",null,null,"5","WEEK 12","2024-09-25","87"],["GLPX1","LB","GLPX1-101-275","21","CREAT","Creatinine","72","umol/L","72",72.0,"umol/L",62.0,106.0,62.0,106.0,"NORMAL",null,null,"6","WEEK 16","2024-10-23","115"],["GLPX1","LB","GLPX1-101-275","22","ALT","Alanine Aminotransferase","27","U/L","27",27.0,"U/L",10.0,40.0,10.0,40.0,"NORMAL",null,null,"6","WEEK 16","2024-10-24","116"],["GLPX1","LB","GLPX1-101-275","23","GLUC","Glucose","10.2","mmol/L","10.2",10.2,"mmol/L",3.9,5.6,3.9,5.6,"HIGH",null,null,"6","WEEK 16","2024-10-24","116"],["GLPX1","LB","GLPX1-101-275","24","HBA1C","Hemoglobin A1C","7.4","%","7.4",7.4,"%",4.0,5.6,4.0,5.6,"HIGH",null,null,"6","WEEK 16","2024-10-24","116"],["GLPX1","LB","GLPX1-101-275","25","CREAT","Creatinine","68","umol/L","68",68.0,"umol/L",62.0,106.0,62.0,106.0,"NORMAL",null,null,"7","WEEK 20","2024-11-17","140"],["GLPX1","LB","GLPX1-101-275","26","ALT","Alanine Aminotransferase","20","U/L","20",20.0,"U/L",10.0,40.0,10.0,40.0,"NORMAL",null,null,"7","WEEK 20","2024-11-18","141"],["GLPX1","LB","GLPX1-101-275","27","GLUC","Glucose","9.1","mmol/L","9.1",9.1,"mmol/L",3.9,5.6,3.9,5.6,"HIGH",null,null,"7","WEEK 20","2024-11-20","143"],["GLPX1","LB","GLPX1-101-275","28","HBA1C","Hemoglobin A1C","7.5","%","7.5",7.5,"%",4.0,5.6,4.0,5.6,"HIGH",null,null,"7","WEEK 20","2024-11-21","144"],["GLPX1","LB","GLPX1-101-275","29","CREAT","Creatinine","75","umol/L","75",75.0,"umol/L",62.0,106.0,62.0,106.0,"NORMAL",null,null,"8","WEEK 26","2024-12-29","182"],["GLPX1","LB","GLPX1-101-275","30","HBA1C","Hemoglobin A1C","7.3","%","7.3",7.3,"%",4.0,5.6,4.0,5.6,"HIGH",null,null,"8","WEEK 26","2024-12-30","183"],["GLPX1","LB","GLPX1-101-275","31","ALT","Alanine Aminotransferase","43","U/L","43",43.0,"U/L",10.0,40.0,10.0,40.0,"HIGH",null,null,"8","WEEK 26","2024-12-31","184"],["GLPX1","LB","GLPX1-101-275","32","GLUC","Glucose","6.2","mmol/L","6.2",6.2,"mmol/L",3.9,5.6,3.9,5.6,"HIGH",null,null,"8","WEEK 26","2024-12-31","184"],["GLPX1","LB","GLPX1-101-280","1","CREAT","Creatinine","66","umol/L","66",66.0,"umol/L",44.0,80.0,44.0,80.0,"NORMAL",null,"Y","1","SCREENING","2024-04-24","-16"],["GLPX1","LB","GLPX1-101-280","2","GLUC","Glucose","10.1","mmol/L","10.1",10.1,"mmol/L",3.9,5.6,3.9,5.6,"HIGH",null,"Y","1","SCREENING","2024-04-25","-15"],["GLPX1","LB","GLPX1-101-280","3","ALT","Alanine Aminotransferase","23","U/L","23",23.0,"U/L",7.0,35.0,7.0,35.0,"NORMAL",null,"Y","1","SCREENING","2024-04-28","-12"],["GLPX1","LB","GLPX1-101-280","4","HBA1C","Hemoglobin A1C","10.1","%","10.1",10.1,"%",4.0,5.6,4.0,5.6,"HIGH",null,"Y","1","SCREENING","2024-04-28","-12"],["GLPX1","LB","GLPX1-101-280","5","ALT","Alanine Aminotransferase","34","U/L","34",34.0,"U/L",7.0,35.0,7.0,35.0,"NORMAL",null,null,"2","BASELINE","2024-05-10","1"],["GLPX1","LB","GLPX1-101-280","6","CREAT","Creatinine","58","umol/L","58",58.0,"umol/L",44.0,80.0,44.0,80.0,"NORMAL",null,null,"2","BASELINE","2024-05-10","1"],["GLPX1","LB","GLPX1-101-280","7","HBA1C","Hemoglobin A1C","10","%","10",10.0,"%",4.0,5.6,4.0,5.6,"HIGH",null,null,"2","BASELINE","2024-05-10","1"],["GLPX1","LB","GLPX1-101-280","8","GLUC","Glucose","8.9","mmol/L","8.9",8.9,"mmol/L",3.9,5.6,3.9,5.6,"HIGH",null,null,"2","BASELINE","2024-05-13","4"],["GLPX1","LB","GLPX1-101-280","9","CREAT","Creatinine","63","umol/L","63",63.0,"umol/L",44.0,80.0,44.0,80.0,"NORMAL",null,null,"3","WEEK 4","2024-06-07","29"],["GLPX1","LB","GLPX1-101-280","10","ALT","Alanine Aminotransferase","19","U/L","19",19.0,"U/L",7.0,35.0,7.0,35.0,"NORMAL",null,null,"3","WEEK 4","2024-06-08","30"],["GLPX1","LB","GLPX1-101-280","11","GLUC","Glucose","9.5","mmol/L","9.5",9.5,"mmol/L",3.9,5.6,3.9,5.6,"HIGH",null,null,"3","WEEK 4","2024-06-09","31"],["GLPX1","LB","GLPX1-101-280","12","HBA1C","Hemoglobin A1C","9.5","%","9.5",9.5,"%",4.0,5.6,4.0,5.6,"HIGH",null,null,"3","WEEK 4","2024-06-09","31"],["GLPX1","LB","GLPX1-101-280","13","GLUC","Glucose","9.4","mmol/L","9.4",9.4,"mmol/L",3.9,5.6,3.9,5.6,"HIGH",null,null,"4","WEEK 8","2024-07-04","56"],["GLPX1","LB","GLPX1-101-280","14","ALT","Alanine Aminotransferase","32","U/L","32",32.0,"U/L",7.0,35.0,7.0,35.0,"NORMAL",null,null,"4","WEEK 8","2024-07-05","57"],["GLPX1","LB","GLPX1-101-280","15","HBA1C","Hemoglobin A1C","9.6","%","9.6",9.6,"%",4.0,5.6,4.0,5.6,"HIGH",null,null,"4","WEEK 8","2024-07-06","58"],["GLPX1","LB","GLPX1-101-280","16","CREAT","Creatinine","52","umol/L","52",52.0,"umol/L",44.0,80.0,44.0,80.0,"NORMAL",null,null,"4","WEEK 8","2024-07-07","59"],["GLPX1","LB","GLPX1-101-280","17","ALT","Alanine Aminotransferase","28","U/L","28",28.0,"U/L",7.0,35.0,7.0,35.0,"NORMAL",null,null,"5","WEEK 12","2024-08-02","85"],["GLPX1","LB","GLPX1-101-280","18","CREAT","Creatinine","58","umol/L","58",58.0,"umol/L",44.0,80.0,44.0,80.0,"NORMAL",null,null,"5","WEEK 12","2024-08-03","86"],["GLPX1","LB","GLPX1-101-280","19","GLUC","Glucose","8.8","mmol/L","8.8",8.8,"mmol/L",3.9,5.6,3.9,5.6,"HIGH",null,null,"5","WEEK 12","2024-08-03","86"],["GLPX1","LB","GLPX1-101-280","20","HBA1C","Hemoglobin A1C","9.4","%","9.4",9.4,"%",4.0,5.6,4.0,5.6,"HIGH",null,null,"5","WEEK 12","2024-08-03","86"],["GLPX1","LB","GLPX1-101-280","21","HBA1C","Hemoglobin A1C","8.8","%","8.8",8.8,"%",4.0,5.6,4.0,5.6,"HIGH",null,null,"6","WEEK 16","2024-08-29","112"],["GLPX1","LB","GLPX1-101-280","22","GLUC","Glucose","9.2","mmol/L","9.2",9.2,"mmol/L",3.9,5.6,3.9,5.6,"HIGH",null,null,"6","WEEK 16","2024-08-30","113"],["GLPX1","LB","GLPX1-101-280","23","ALT","Alanine Aminotransferase","20","U/L","20",20.0,"U/L",7.0,35.0,7.0,35.0,"NORMAL",null,null,"6","WEEK 16","2024-09-01","115"],["GLPX1","LB","GLPX1-101-280","24","CREAT","Creatinine","67","umol/L","67",67.0,"umol/L",44.0,80.0,44.0,80.0,"NORMAL",null,null,"6","WEEK 16","2024-09-02","116"],["GLPX1","LB","GLPX1-101-280","25","GLUC","Glucose","6.7","mmol/L","6.7",6.7,"mmol/L",3.9,5.6,3.9,5.6,"HIGH",null,null,"7","WEEK 20","2024-09-27","141"],["GLPX1","LB","GLPX1-101-280","26","HBA1C","Hemoglobin A1C","8.7","%","8.7",8.7,"%",4.0,5.6,4.0,5.6,"HIGH",null,null,"7","WEEK 20","2024-09-27","141"],["GLPX1","LB","GLPX1-101-280","27","ALT","Alanine Aminotransferase","25","U/L","25",25.0,"U/L",7.0,35.0,7.0,35.0,"NORMAL",null,null,"7","WEEK 20","2024-09-28","142"],["GLPX1","LB","GLPX1-101-280","28","CREAT","Creatinine","77","umol/L","77",77.0,"umol/L",44.0,80.0,44.0,80.0,"NORMAL",null,null,"7","WEEK 20","2024-09-28","142"],["GLPX1","LB","GLPX1-101-280","29","CREAT","Creatinine","79","umol/L","79",79.0,"umol/L",44.0,80.0,44.0,80.0,"NORMAL",null,null,"8","WEEK 26","2024-11-07","182"],["GLPX1","LB","GLPX1-101-280","30","GLUC","Glucose","7.6","mmol/L","7.6",7.6,"mmol/L",3.9,5.6,3.9,5.6,"HIGH",null,null,"8","WEEK 26","2024-11-07","182"],["GLPX1","LB","GLPX1-101-280","31","HBA1C","Hemoglobin A1C","8.7","%","8.7",8.7,"%",4.0,5.6,4.0,5.6,"HIGH",null,null,"8","WEEK 26","2024-11-08","183"],["GLPX1","LB","GLPX1-101-280","32","ALT","Alanine Aminotransferase","37","U/L","37",37.0,"U/L",7.0,35.0,7.0,35.0,"HIGH",null,null,"8","WEEK 26","2024-11-09","184"],["GLPX1","LB","GLPX1-101-292","1","CREAT","Creatinine","68","umol/L","68",68.0,"umol/L",62.0,106.0,62.0,106.0,"NORMAL",null,"Y","1","SCREENING","2024-06-22","-14"],["GLPX1","LB","GLPX1-101-292","2","GLUC","Glucose","9.2","mmol/L","9.2",9.2,"mmol/L",3.9,5.6,3.9,5.6,"HIGH",null,null,"1","SCREENING","2024-06-22","-14"],["GLPX1","LB","GLPX1-101-292","3","ALT","Alanine Aminotransferase","21","U/L","21",21.0,"U/L",10.0,40.0,10.0,40.0,"NORMAL",null,"Y","1","SCREENING","2024-06-23","-13"],["GLPX1","LB","GLPX1-101-292","4","HBA1C","Hemoglobin A1C","8","%","8",8.0,"%",4.0,5.6,4.0,5.6,"HIGH",null,"Y","1","SCREENING","2024-06-24","-12"],["GLPX1","LB","GLPX1-101-292","5","GLUC","Glucose","9.4","mmol/L","9.4",9.4,"mmol/L",3.9,5.6,3.9,5.6,"HIGH",null,"Y","2","BASELINE","2024-07-05","-1"],["GLPX1","LB","GLPX1-101-292","6","ALT","Alanine Aminotransferase","21","U/L","21",21.0,"U/L",10.0,40.0,10.0,40.0,"NORMAL",null,null,"2","BASELINE","2024-07-06","1"],["GLPX1","LB","GLPX1-101-292","7","CREAT","Creatinine","84","umol/L","84",84.0,"umol/L",62.0,106.0,62.0,106.0,"NORMAL",null,null,"2","BASELINE","2024-07-09","4"],["GLPX1","LB","GLPX1-101-292","8","HBA1C","Hemoglobin A1C","7.9","%","7.9",7.9,"%",4.0,5.6,4.0,5.6,"HIGH",null,null,"2","BASELINE","2024-07-09","4"],["GLPX1","LB","GLPX1-101-292","9","ALT","Alanine Aminotransferase","41","U/L","41",41.0,"U/L",10.0,40.0,10.0,40.0,"HIGH",null,null,"3","WEEK 4","2024-08-02","28"],["GLPX1","LB","GLPX1-101-292","10","CREAT","Creatinine","68","umol/L","68",68.0,"umol/L",62.0,106.0,62.0,106.0,"NORMAL",null,null,"3","WEEK 4","2024-08-02","28"],["GLPX1","LB","GLPX1-101-292","11","GLUC","Glucose","9.1","mmol/L","9.1",9.1,"mmol/L",3.9,5.6,3.9,5.6,"HIGH",null,null,"3","WEEK 4","2024-08-06","32"],["GLPX1","LB","GLPX1-101-292","12","HBA1C","Hemoglobin A1C","8.3","%","8.3",8.3,"%",4.0,5.6,4.0,5.6,"HIGH",null,null,"3","WEEK 4","2024-08-06","32"],["GLPX1","LB","GLPX1-101-292","13","ALT","Alanine Aminotransferase","11","U/L","11",11.0,"U/L",10.0,40.0,10.0,40.0,"NORMAL",null,null,"4","WEEK 8","2024-08-31","57"],["GLPX1","LB","GLPX1-101-292","14","GLUC","Glucose","8.2","mmol/L","8.2",8.2,"mmol/L",3.9,5.6,3.9,5.6,"HIGH",null,null,"4","WEEK 8","2024-08-31","57"],["GLPX1","LB","GLPX1-101-292","15","HBA1C","Hemoglobin A1C","7.6","%","7.6",7.6,"%",4.0,5.6,4.0,5.6,"HIGH",null,null,"4","WEEK 8","2024-08-31","57"],["GLPX1","LB","GLPX1-101-292","16","CREAT","Creatinine","84","umol/L","84",84.0,"umol/L",62.0,106.0,62.0,106.0,"NORMAL",null,null,"4","WEEK 8","2024-09-03","60"],["GLPX1","LB","GLPX1-101-292","17","CREAT","Creatinine","78","umol/L","78",78.0,"umol/L",62.0,106.0,62.0,106.0,"NORMAL",null,null,"5","WEEK 12","2024-09-28","85"],["GLPX1","LB","GLPX1-101-292","18","HBA1C","Hemoglobin A1C","7.4","%","7.4",7.4,"%",4.0,5.6,4.0,5.6,"HIGH",null,null,"5","WEEK 12","2024-09-28","85"],["GLPX1","LB","GLPX1-101-292","19","ALT","Alanine Aminotransferase","39","U/L","39",39.0,"U/L",10.0,40.0,10.0,40.0,"NORMAL",null,null,"5","WEEK 12","2024-09-30","87"],["GLPX1","LB","GLPX1-101-292","20","GLUC","Glucose","7.9","mmol/L","7.9",7.9,"mmol/L",3.9,5.6,3.9,5.6,"HIGH",null,null,"5","WEEK 12","2024-10-01","88"],["GLPX1","LB","GLPX1-101-292","21","ALT","Alanine Aminotransferase","31","U/L","31",31.0,"U/L",10.0,40.0,10.0,40.0,"NORMAL",null,null,"6","WEEK 16","2024-10-27","114"],["GLPX1","LB","GLPX1-101-292","22","CREAT","Creatinine","67","umol/L","67",67.0,"umol/L",62.0,106.0,62.0,106.0,"NORMAL",null,null,"6","WEEK 16","2024-10-27","114"],["GLPX1","LB","GLPX1-101-292","23","GLUC","Glucose","10","mmol/L","10",10.0,"mmol/L",3.9,5.6,3.9,5.6,"HIGH",null,null,"6","WEEK 16","2024-10-28","115"],["GLPX1","LB","GLPX1-101-292","24","HBA1C","Hemoglobin A1C","7.8","%","7.8",7.8,"%",4.0,5.6,4.0,5.6,"HIGH",null,null,"6","WEEK 16","2024-10-28","115"],["GLPX1","LB","GLPX1-101-292","25","CREAT","Creatinine","84","umol/L","84",84.0,"umol/L",62.0,106.0,62.0,106.0,"NORMAL",null,null,"7","WEEK 20","2024-11-22","140"],["GLPX1","LB","GLPX1-101-292","26","HBA1C","Hemoglobin A1C","7.5","%","7.5",7.5,"%",4.0,5.6,4.0,5.6,"HIGH",null,null,"7","WEEK 20","2024-11-22","140"],["GLPX1","LB","GLPX1-101-292","27","GLUC","Glucose","8","mmol/L","8",8.0,"mmol/L",3.9,5.6,3.9,5.6,"HIGH",null,null,"7","WEEK 20","2024-11-24","142"],["GLPX1","LB","GLPX1-101-292","28","ALT","Alanine Aminotransferase","21","U/L","21",21.0,"U/L",10.0,40.0,10.0,40.0,"NORMAL",null,null,"7","WEEK 20","2024-11-26","144"],["GLPX1","LB","GLPX1-101-292","29","ALT","Alanine Aminotransferase","31","U/L","31",31.0,"U/L",10.0,40.0,10.0,40.0,"NORMAL",null,null,"8","WEEK 26","2025-01-03","182"],["GLPX1","LB","GLPX1-101-292","30","CREAT","Creatinine","60","umol/L","60",60.0,"umol/L",62.0,106.0,62.0,106.0,"LOW",null,null,"8","WEEK 26","2025-01-03","182"],["GLPX1","LB","GLPX1-101-292","31","GLUC","Glucose","8.4","mmol/L","8.4",8.4,"mmol/L",3.9,5.6,3.9,5.6,"HIGH",null,null,"8","WEEK 26","2025-01-03","182"],["GLPX1","LB","GLPX1-101-292","32","HBA1C","Hemoglobin A1C","6.5","%","6.5",6.5,"%",4.0,5.6,4.0,5.6,"HIGH",null,null,"8","WEEK 26","2025-01-04","183"],["GLPX1","LB","GLPX1-101-294","1","GLUC","Glucose","8.5","mmol/L","8.5",8.5,"mmol/L",3.9,5.6,3.9,5.6,"HIGH",null,"Y","1","SCREENING","2024-01-15","-16"],["GLPX1","LB","GLPX1-101-294","2","HBA1C","Hemoglobin A1C","7.3","%","7.3",7.3,"%",4.0,5.6,4.0,5.6,"HIGH",null,"Y","1","SCREENING","2024-01-16","-15"],["GLPX1","LB","GLPX1-101-294","3","ALT","Alanine Aminotransferase","22","U/L","22",22.0,"U/L",7.0,35.0,7.0,35.0,"NORMAL",null,"Y","1","SCREENING","2024-01-17","-14"],["GLPX1","LB","GLPX1-101-294","4","CREAT","Creatinine","75","umol/L","75",75.0,"umol/L",44.0,80.0,44.0,80.0,"NORMAL",null,"Y","1","SCREENING","2024-01-17","-14"],["GLPX1","LB","GLPX1-101-294","5","GLUC","Glucose","8.6","mmol/L","8.6",8.6,"mmol/L",3.9,5.6,3.9,5.6,"HIGH",null,null,"2","BASELINE","2024-01-31","1"],["GLPX1","LB","GLPX1-101-294","6","HBA1C","Hemoglobin A1C","7.3","%","7.3",7.3,"%",4.0,5.6,4.0,5.6,"HIGH",null,null,"2","BASELINE","2024-02-01","2"],["GLPX1","LB","GLPX1-101-294","7","ALT","Alanine Aminotransferase","12","U/L","12",12.0,"U/L",7.0,35.0,7.0,35.0,"NORMAL",null,null,"2","BASELINE","2024-02-02","3"],["GLPX1","LB","GLPX1-101-294","8","CREAT","Creatinine","68","umol/L","68",68.0,"umol/L",44.0,80.0,44.0,80.0,"NORMAL",null,null,"2","BASELINE","2024-02-02","3"],["GLPX1","LB","GLPX1-101-294","9","ALT","Alanine Aminotransferase","39","U/L","39",39.0,"U/L",7.0,35.0,7.0,35.0,"HIGH",null,null,"3","WEEK 4","2024-02-27","28"],["GLPX1","LB","GLPX1-101-294","10","CREAT","Creatinine","54","umol/L","54",54.0,"umol/L",44.0,80.0,44.0,80.0,"NORMAL",null,null,"3","WEEK 4","2024-02-27","28"],["GLPX1","LB","GLPX1-101-294","11","HBA1C","Hemoglobin A1C","7.7","%","7.7",7.7,"%",4.0,5.6,4.0,5.6,"HIGH",null,null,"3","WEEK 4","2024-02-27","28"],["GLPX1","LB","GLPX1-101-294","12","GLUC","Glucose","10.5","mmol/L","10.5",10.5,"mmol/L",3.9,5.6,3.9,5.6,"HIGH",null,null,"3","WEEK 4","2024-02-28","29"],["GLPX1","LB","GLPX1-101-294","13","ALT","Alanine Aminotransferase","17","U/L","17",17.0,"U/L",7.0,35.0,7.0,35.0,"NORMAL",null,null,"4","WEEK 8","2024-03-28","58"],["GLPX1","LB","GLPX1-101-294","14","HBA1C","Hemoglobin A1C","7","%","7",7.0,"%",4.0,5.6,4.0,5.6,"HIGH",null,null,"4","WEEK 8","2024-03-28","58"],["GLPX1","LB","GLPX1-101-294","15","GLUC","Glucose","10.9","mmol/L","10.9",10.9,"mmol/L",3.9,5.6,3.9,5.6,"HIGH",null,null,"4","WEEK 8","2024-03-29","59"],["GLPX1","LB","GLPX1-101-294","16","CREAT","Creatinine","61","umol/L","61",61.0,"umol/L",44.0,80.0,44.0,80.0,"NORMAL",null,null,"4","WEEK 8","2024-03-30","60"],["GLPX1","LB","GLPX1-101-294","17","ALT","Alanine Aminotransferase","28","U/L","28",28.0,"U/L",7.0,35.0,7.0,35.0,"NORMAL",null,null,"5","WEEK 12","2024-04-23","84"],["GLPX1","LB","GLPX1-101-294","18","GLUC","Glucose","9.7","mmol/L","9.7",9.7,"mmol/L",3.9,5.6,3.9,5.6,"HIGH",null,null,"5","WEEK 12","2024-04-25","86"],["GLPX1","LB","GLPX1-101-294","19","HBA1C","Hemoglobin A1C","7.2","%","7.2",7.2,"%",4.0,5.6,4.0,5.6,"HIGH",null,null,"5","WEEK 12","2024-04-25","86"],["GLPX1","LB","GLPX1-101-294","20","CREAT","Creatinine","60","umol/L","60",60.0,"umol/L",44.0,80.0,44.0,80.0,"NORMAL",null,null,"5","WEEK 12","2024-04-26","87"],["GLPX1","LB","GLPX1-101-294","21","GLUC","Glucose","4.8","mmol/L","4.8",4.8,"mmol/L",3.9,5.6,3.9,5.6,"NORMAL",null,null,"6","WEEK 16","2024-05-21","112"],["GLPX1","LB","GLPX1-101-294","22","HBA1C","Hemoglobin A1C","6.6","%","6.6",6.6,"%",4.0,5.6,4.0,5.6,"HIGH",null,null,"6","WEEK 16","2024-05-22","113"],["GLPX1","LB","GLPX1-101-294","23","ALT","Alanine Aminotransferase","20","U/L","20",20.0,"U/L",7.0,35.0,7.0,35.0,"NORMAL",null,null,"6","WEEK 16","2024-05-24","115"],["GLPX1","LB","GLPX1-101-294","24","CREAT","Creatinine","79","umol/L","79",79.0,"umol/L",44.0,80.0,44.0,80.0,"NORMAL",null,null,"6","WEEK 16","2024-05-24","115"],["GLPX1","LB","GLPX1-101-294","25","CREAT","Creatinine","73","umol/L","73",73.0,"umol/L",44.0,80.0,44.0,80.0,"NORMAL",null,null,"7","WEEK 20","2024-06-18","140"],["GLPX1","LB","GLPX1-101-294","26","HBA1C","Hemoglobin A1C","6.8","%","6.8",6.8,"%",4.0,5.6,4.0,5.6,"HIGH",null,null,"7","WEEK 20","2024-06-18","140"],["GLPX1","LB","GLPX1-101-294","27","ALT","Alanine Aminotransferase","29","U/L","29",29.0,"U/L",7.0,35.0,7.0,35.0,"NORMAL",null,null,"7","WEEK 20","2024-06-20","142"],["GLPX1","LB","GLPX1-101-294","28","GLUC","Glucose","7.1","mmol/L","7.1",7.1,"mmol/L",3.9,5.6,3.9,5.6,"HIGH",null,null,"7","WEEK 20","2024-06-20","142"],["GLPX1","LB","GLPX1-101-294","29","ALT","Alanine Aminotransferase","33","U/L","33",33.0,"U/L",7.0,35.0,7.0,35.0,"NORMAL",null,null,"8","WEEK 26","2024-07-30","182"],["GLPX1","LB","GLPX1-101-294","30","CREAT","Creatinine","68","umol/L","68",68.0,"umol/L",44.0,80.0,44.0,80.0,"NORMAL",null,null,"8","WEEK 26","2024-07-30","182"],["GLPX1","LB","GLPX1-101-294","31","GLUC","Glucose","8.8","mmol/L","8.8",8.8,"mmol/L",3.9,5.6,3.9,5.6,"HIGH",null,null,"8","WEEK 26","2024-07-31","183"],["GLPX1","LB","GLPX1-101-294","32","HBA1C","Hemoglobin A1C","6.6","%","6.6",6.6,"%",4.0,5.6,4.0,5.6,"HIGH",null,null,"8","WEEK 26","2024-08-01","184"],["GLPX1","LB","GLPX1-101-308","1","ALT","Alanine Aminotransferase","26","U/L","26",26.0,"U/L",10.0,40.0,10.0,40.0,"NORMAL",null,"Y","1","SCREENING","2024-06-11","-16"],["GLPX1","LB","GLPX1-101-308","2","HBA1C","Hemoglobin A1C","7.4","%","7.4",7.4,"%",4.0,5.6,4.0,5.6,"HIGH",null,"Y","1","SCREENING","2024-06-12","-15"],["GLPX1","LB","GLPX1-101-308","3","CREAT","Creatinine","91","umol/L","91",91.0,"umol/L",62.0,106.0,62.0,106.0,"NORMAL",null,"Y","1","SCREENING","2024-06-14","-13"],["GLPX1","LB","GLPX1-101-308","4","GLUC","Glucose","8.6","mmol/L","8.6",8.6,"mmol/L",3.9,5.6,3.9,5.6,"HIGH",null,null,"1","SCREENING","2024-06-15","-12"],["GLPX1","LB","GLPX1-101-308","5","GLUC","Glucose","11.2","mmol/L","11.2",11.2,"mmol/L",3.9,5.6,3.9,5.6,"HIGH",null,"Y","2","BASELINE","2024-06-26","-1"],["GLPX1","LB","GLPX1-101-308","6","ALT","Alanine Aminotransferase","26","U/L","26",26.0,"U/L",10.0,40.0,10.0,40.0,"NORMAL",null,null,"2","BASELINE","2024-06-27","1"],["GLPX1","LB","GLPX1-101-308","7","HBA1C","Hemoglobin A1C","7.5","%","7.5",7.5,"%",4.0,5.6,4.0,5.6,"HIGH",null,null,"2","BASELINE","2024-06-27","1"],["GLPX1","LB","GLPX1-101-308","8","CREAT","Creatinine","77","umol/L","77",77.0,"umol/L",62.0,106.0,62.0,106.0,"NORMAL",null,null,"2","BASELINE","2024-06-29","3"],["GLPX1","LB","GLPX1-101-308","9","ALT","Alanine Aminotransferase","33","U/L","33",33.0,"U/L",10.0,40.0,10.0,40.0,"NORMAL",null,null,"3","WEEK 4","2024-07-25","29"],["GLPX1","LB","GLPX1-101-308","10","HBA1C","Hemoglobin A1C","7.4","%","7.4",7.4,"%",4.0,5.6,4.0,5.6,"HIGH",null,null,"3","WEEK 4","2024-07-25","29"],["GLPX1","LB","GLPX1-101-308","11","CREAT","Creatinine","89","umol/L","89",89.0,"umol/L",62.0,106.0,62.0,106.0,"NORMAL",null,null,"3","WEEK 4","2024-07-26","30"],["GLPX1","LB","GLPX1-101-308","12","GLUC","Glucose","7.8","mmol/L","7.8",7.8,"mmol/L",3.9,5.6,3.9,5.6,"HIGH",null,null,"3","WEEK 4","2024-07-27","31"],["GLPX1","LB","GLPX1-101-308","13","GLUC","Glucose","7.9","mmol/L","7.9",7.9,"mmol/L",3.9,5.6,3.9,5.6,"HIGH",null,null,"4","WEEK 8","2024-08-21","56"],["GLPX1","LB","GLPX1-101-308","14","ALT","Alanine Aminotransferase","34","U/L","34",34.0,"U/L",10.0,40.0,10.0,40.0,"NORMAL",null,null,"4","WEEK 8","2024-08-24","59"],["GLPX1","LB","GLPX1-101-308","15","CREAT","Creatinine","83","umol/L","83",83.0,"umol/L",62.0,106.0,62.0,106.0,"NORMAL",null,null,"4","WEEK 8","2024-08-25","60"],["GLPX1","LB","GLPX1-101-308","16","HBA1C","Hemoglobin A1C","7.4","%","7.4",7.4,"%",4.0,5.6,4.0,5.6,"HIGH",null,null,"4","WEEK 8","2024-08-25","60"],["GLPX1","LB","GLPX1-101-308","17","GLUC","Glucose","8.1","mmol/L","8.1",8.1,"mmol/L",3.9,5.6,3.9,5.6,"HIGH",null,null,"5","WEEK 12","2024-09-19","85"],["GLPX1","LB","GLPX1-101-308","18","CREAT","Creatinine","70","umol/L","70",70.0,"umol/L",62.0,106.0,62.0,106.0,"NORMAL",null,null,"5","WEEK 12","2024-09-20","86"],["GLPX1","LB","GLPX1-101-308","19","ALT","Alanine Aminotransferase","28","U/L","28",28.0,"U/L",10.0,40.0,10.0,40.0,"NORMAL",null,null,"5","WEEK 12","2024-09-22","88"],["GLPX1","LB","GLPX1-101-308","20","HBA1C","Hemoglobin A1C","7","%","7",7.0,"%",4.0,5.6,4.0,5.6,"HIGH",null,null,"5","WEEK 12","2024-09-22","88"],["GLPX1","LB","GLPX1-101-308","21","CREAT","Creatinine","84","umol/L","84",84.0,"umol/L",62.0,106.0,62.0,106.0,"NORMAL",null,null,"6","WEEK 16","2024-10-16","112"],["GLPX1","LB","GLPX1-101-308","22","GLUC","Glucose","9.3","mmol/L","9.3",9.3,"mmol/L",3.9,5.6,3.9,5.6,"HIGH",null,null,"6","WEEK 16","2024-10-17","113"],["GLPX1","LB","GLPX1-101-308","23","HBA1C","Hemoglobin A1C","6.3","%","6.3",6.3,"%",4.0,5.6,4.0,5.6,"HIGH",null,null,"6","WEEK 16","2024-10-19","115"],["GLPX1","LB","GLPX1-101-308","24","ALT","Alanine Aminotransferase","30","U/L","30",30.0,"U/L",10.0,40.0,10.0,40.0,"NORMAL",null,null,"6","WEEK 16","2024-10-20","116"],["GLPX1","LB","GLPX1-101-308","25","ALT","Alanine Aminotransferase","21","U/L","21",21.0,"U/L",10.0,40.0,10.0,40.0,"NORMAL",null,null,"7","WEEK 20","2024-11-13","140"],["GLPX1","LB","GLPX1-101-308","26","HBA1C","Hemoglobin A1C","6.7","%","6.7",6.7,"%",4.0,5.6,4.0,5.6,"HIGH",null,null,"7","WEEK 20","2024-11-14","141"],["GLPX1","LB","GLPX1-101-308","27","CREAT","Creatinine","70","umol/L","70",70.0,"umol/L",62.0,106.0,62.0,106.0,"NORMAL",null,null,"7","WEEK 20","2024-11-16","143"],["GLPX1","LB","GLPX1-101-308","28","GLUC","Glucose","7.2","mmol/L","7.2",7.2,"mmol/L",3.9,5.6,3.9,5.6,"HIGH",null,null,"7","WEEK 20","2024-11-17","144"],["GLPX1","LB","GLPX1-101-308","29","ALT","Alanine Aminotransferase","37","U/L","37",37.0,"U/L",10.0,40.0,10.0,40.0,"NORMAL",null,null,"8","WEEK 26","2024-12-24","181"],["GLPX1","LB","GLPX1-101-308","30","GLUC","Glucose","6.2","mmol/L","6.2",6.2,"mmol/L",3.9,5.6,3.9,5.6,"HIGH",null,null,"8","WEEK 26","2024-12-25","182"],["GLPX1","LB","GLPX1-101-308","31","HBA1C","Hemoglobin A1C","6.3","%","6.3",6.3,"%",4.0,5.6,4.0,5.6,"HIGH",null,null,"8","WEEK 26","2024-12-25","182"],["GLPX1","LB","GLPX1-101-308","32","CREAT","Creatinine","73","umol/L","73",73.0,"umol/L",62.0,106.0,62.0,106.0,"NORMAL",null,null,"8","WEEK 26","2024-12-26","183"],["GLPX1","LB","GLPX1-101-309","1","ALT","Alanine Aminotransferase","32","U/L","32",32.0,"U/L",10.0,40.0,10.0,40.0,"NORMAL",null,"Y","1","SCREENING","2024-03-20","-16"],["GLPX1","LB","GLPX1-101-309","2","GLUC","Glucose","11.3","mmol/L","11.3",11.3,"mmol/L",3.9,5.6,3.9,5.6,"HIGH",null,"Y","1","SCREENING","2024-03-20","-16"],["GLPX1","LB","GLPX1-101-309","3","CREAT","Creatinine","67","umol/L","67",67.0,"umol/L",62.0,106.0,62.0,106.0,"NORMAL",null,"Y","1","SCREENING","2024-03-21","-15"],["GLPX1","LB","GLPX1-101-309","4","HBA1C","Hemoglobin A1C","8.3","%","8.3",8.3,"%",4.0,5.6,4.0,5.6,"HIGH",null,null,"1","SCREENING","2024-03-22","-14"],["GLPX1","LB","GLPX1-101-309","5","HBA1C","Hemoglobin A1C","8.4","%","8.4",8.4,"%",4.0,5.6,4.0,5.6,"HIGH",null,"Y","2","BASELINE","2024-04-04","-1"],["GLPX1","LB","GLPX1-101-309","6","ALT","Alanine Aminotransferase","24","U/L","24",24.0,"U/L",10.0,40.0,10.0,40.0,"NORMAL",null,null,"2","BASELINE","2024-04-08","4"],["GLPX1","LB","GLPX1-101-309","7","CREAT","Creatinine","63","umol/L","63",63.0,"umol/L",62.0,106.0,62.0,106.0,"NORMAL",null,null,"2","BASELINE","2024-04-08","4"],["GLPX1","LB","GLPX1-101-309","8","GLUC","Glucose","10.1","mmol/L","10.1",10.1,"mmol/L",3.9,5.6,3.9,5.6,"HIGH",null,null,"2","BASELINE","2024-04-08","4"],["GLPX1","LB","GLPX1-101-309","9","ALT","Alanine Aminotransferase","15","U/L","15",15.0,"U/L",10.0,40.0,10.0,40.0,"NORMAL",null,null,"3","WEEK 4","2024-05-03","29"],["GLPX1","LB","GLPX1-101-309","10","CREAT","Creatinine","66","umol/L","66",66.0,"umol/L",62.0,106.0,62.0,106.0,"NORMAL",null,null,"3","WEEK 4","2024-05-04","30"],["GLPX1","LB","GLPX1-101-309","11","GLUC","Glucose","10.5","mmol/L","10.5",10.5,"mmol/L",3.9,5.6,3.9,5.6,"HIGH",null,null,"3","WEEK 4","2024-05-04","30"],["GLPX1","LB","GLPX1-101-309","12","HBA1C","Hemoglobin A1C","8.4","%","8.4",8.4,"%",4.0,5.6,4.0,5.6,"HIGH",null,null,"3","WEEK 4","2024-05-06","32"],["GLPX1","LB","GLPX1-101-335","1","ALT","Alanine Aminotransferase","31","U/L","31",31.0,"U/L",7.0,35.0,7.0,35.0,"NORMAL",null,"Y","1","SCREENING","2024-02-11","-16"],["GLPX1","LB","GLPX1-101-335","2","CREAT","Creatinine","61","umol/L","61",61.0,"umol/L",44.0,80.0,44.0,80.0,"NORMAL",null,null,"1","SCREENING","2024-02-13","-14"],["GLPX1","LB","GLPX1-101-335","3","HBA1C","Hemoglobin A1C","7.4","%","7.4",7.4,"%",4.0,5.6,4.0,5.6,"HIGH",null,"Y","1","SCREENING","2024-02-13","-14"],["GLPX1","LB","GLPX1-101-335","4","GLUC","Glucose","10.1","mmol/L","10.1",10.1,"mmol/L",3.9,5.6,3.9,5.6,"HIGH",null,"Y","1","SCREENING","2024-02-15","-12"],["GLPX1","LB","GLPX1-101-335","5","CREAT","Creatinine","56","umol/L","56",56.0,"umol/L",44.0,80.0,44.0,80.0,"NORMAL",null,"Y","2","BASELINE","2024-02-26","-1"],["GLPX1","LB","GLPX1-101-335","6","GLUC","Glucose","8.9","mmol/L","8.9",8.9,"mmol/L",3.9,5.6,3.9,5.6,"HIGH",null,null,"2","BASELINE","2024-02-27","1"],["GLPX1","LB","GLPX1-101-335","7","HBA1C","Hemoglobin A1C","7.7","%","7.7",7.7,"%",4.0,5.6,4.0,5.6,"HIGH",null,null,"2","BASELINE","2024-02-27","1"],["GLPX1","LB","GLPX1-101-335","8","ALT","Alanine Aminotransferase","32","U/L","32",32.0,"U/L",7.0,35.0,7.0,35.0,"NORMAL",null,null,"2","BASELINE","2024-02-28","2"],["GLPX1","LB","GLPX1-101-335","9","ALT","Alanine Aminotransferase","30","U/L","30",30.0,"U/L",7.0,35.0,7.0,35.0,"NORMAL",null,null,"3","WEEK 4","2024-03-25","28"],["GLPX1","LB","GLPX1-101-335","10","CREAT","Creatinine","58","umol/L","58",58.0,"umol/L",44.0,80.0,44.0,80.0,"NORMAL",null,null,"3","WEEK 4","2024-03-28","31"],["GLPX1","LB","GLPX1-101-335","11","GLUC","Glucose","10.5","mmol/L","10.5",10.5,"mmol/L",3.9,5.6,3.9,5.6,"HIGH",null,null,"3","WEEK 4","2024-03-28","31"],["GLPX1","LB","GLPX1-101-335","12","HBA1C","Hemoglobin A1C","7.6","%","7.6",7.6,"%",4.0,5.6,4.0,5.6,"HIGH",null,null,"3","WEEK 4","2024-03-29","32"],["GLPX1","LB","GLPX1-101-335","13","GLUC","Glucose","7.1","mmol/L","7.1",7.1,"mmol/L",3.9,5.6,3.9,5.6,"HIGH",null,null,"4","WEEK 8","2024-04-22","56"],["GLPX1","LB","GLPX1-101-335","14","ALT","Alanine Aminotransferase","23","U/L","23",23.0,"U/L",7.0,35.0,7.0,35.0,"NORMAL",null,null,"4","WEEK 8","2024-04-24","58"],["GLPX1","LB","GLPX1-101-335","15","CREAT","Creatinine","56","umol/L","56",56.0,"umol/L",44.0,80.0,44.0,80.0,"NORMAL",null,null,"4","WEEK 8","2024-04-25","59"],["GLPX1","LB","GLPX1-101-335","16","HBA1C","Hemoglobin A1C","7.8","%","7.8",7.8,"%",4.0,5.6,4.0,5.6,"HIGH",null,null,"4","WEEK 8","2024-04-26","60"],["GLPX1","LB","GLPX1-101-335","17","CREAT","Creatinine","77","umol/L","77",77.0,"umol/L",44.0,80.0,44.0,80.0,"NORMAL",null,null,"5","WEEK 12","2024-05-21","85"],["GLPX1","LB","GLPX1-101-335","18","GLUC","Glucose","8.1","mmol/L","8.1",8.1,"mmol/L",3.9,5.6,3.9,5.6,"HIGH",null,null,"5","WEEK 12","2024-05-21","85"],["GLPX1","LB","GLPX1-101-335","19","ALT","Alanine Aminotransferase","35","U/L","35",35.0,"U/L",7.0,35.0,7.0,35.0,"NORMAL",null,null,"5","WEEK 12","2024-05-22","86"],["GLPX1","LB","GLPX1-101-335","20","HBA1C","Hemoglobin A1C","7.9","%","7.9",7.9,"%",4.0,5.6,4.0,5.6,"HIGH",null,null,"5","WEEK 12","2024-05-23","87"],["GLPX1","LB","GLPX1-101-335","21","ALT","Alanine Aminotransferase","32","U/L","32",32.0,"U/L",7.0,35.0,7.0,35.0,"NORMAL",null,null,"6","WEEK 16","2024-06-19","114"],["GLPX1","LB","GLPX1-101-335","22","HBA1C","Hemoglobin A1C","7.3","%","7.3",7.3,"%",4.0,5.6,4.0,5.6,"HIGH",null,null,"6","WEEK 16","2024-06-19","114"],["GLPX1","LB","GLPX1-101-335","23","CREAT","Creatinine","69","umol/L","69",69.0,"umol/L",44.0,80.0,44.0,80.0,"NORMAL",null,null,"6","WEEK 16","2024-06-20","115"],["GLPX1","LB","GLPX1-101-335","24","GLUC","Glucose","10.3","mmol/L","10.3",10.3,"mmol/L",3.9,5.6,3.9,5.6,"HIGH",null,null,"6","WEEK 16","2024-06-21","116"],["GLPX1","LB","GLPX1-101-335","25","HBA1C","Hemoglobin A1C","7.4","%","7.4",7.4,"%",4.0,5.6,4.0,5.6,"HIGH",null,null,"7","WEEK 20","2024-07-15","140"],["GLPX1","LB","GLPX1-101-335","26","ALT","Alanine Aminotransferase","29","U/L","29",29.0,"U/L",7.0,35.0,7.0,35.0,"NORMAL",null,null,"7","WEEK 20","2024-07-18","143"],["GLPX1","LB","GLPX1-101-335","27","CREAT","Creatinine","63","umol/L","63",63.0,"umol/L",44.0,80.0,44.0,80.0,"NORMAL",null,null,"7","WEEK 20","2024-07-18","143"],["GLPX1","LB","GLPX1-101-335","28","GLUC","Glucose","8","mmol/L","8",8.0,"mmol/L",3.9,5.6,3.9,5.6,"HIGH",null,null,"7","WEEK 20","2024-07-19","144"],["GLPX1","LB","GLPX1-101-335","29","ALT","Alanine Aminotransferase","19","U/L","19",19.0,"U/L",7.0,35.0,7.0,35.0,"NORMAL",null,null,"8","WEEK 26","2024-08-27","183"],["GLPX1","LB","GLPX1-101-335","30","GLUC","Glucose","9.2","mmol/L","9.2",9.2,"mmol/L",3.9,5.6,3.9,5.6,"HIGH",null,null,"8","WEEK 26","2024-08-27","183"],["GLPX1","LB","GLPX1-101-335","31","HBA1C","Hemoglobin A1C","7.4","%","7.4",7.4,"%",4.0,5.6,4.0,5.6,"HIGH",null,null,"8","WEEK 26","2024-08-27","183"],["GLPX1","LB","GLPX1-101-335","32","CREAT","Creatinine","58","umol/L","58",58.0,"umol/L",44.0,80.0,44.0,80.0,"NORMAL",null,null,"8","WEEK 26","2024-08-28","184"],["GLPX1","LB","GLPX1-101-336","1","CREAT","Creatinine","78","umol/L","78",78.0,"umol/L",62.0,106.0,62.0,106.0,"NORMAL",null,"Y","1","SCREENING","2024-03-14","-15"],["GLPX1","LB","GLPX1-101-336","2","GLUC","Glucose","9.4","mmol/L","9.4",9.4,"mmol/L",3.9,5.6,3.9,5.6,"HIGH",null,null,"1","SCREENING","2024-03-15","-14"],["GLPX1","LB","GLPX1-101-336","3","ALT","Alanine Aminotransferase","17","U/L","17",17.0,"U/L",10.0,40.0,10.0,40.0,"NORMAL",null,"Y","1","SCREENING","2024-03-16","-13"],["GLPX1","LB","GLPX1-101-336","4","HBA1C","Hemoglobin A1C","7.9","%","7.9",7.9,"%",4.0,5.6,4.0,5.6,"HIGH",null,"Y","1","SCREENING","2024-03-17","-12"],["GLPX1","LB","GLPX1-101-336","5","GLUC","Glucose","8.7","mmol/L","8.7",8.7,"mmol/L",3.9,5.6,3.9,5.6,"HIGH",null,"Y","2","BASELINE","2024-03-28","-1"],["GLPX1","LB","GLPX1-101-336","6","CREAT","Creatinine","81","umol/L","81",81.0,"umol/L",62.0,106.0,62.0,106.0,"NORMAL",null,null,"2","BASELINE","2024-03-29","1"],["GLPX1","LB","GLPX1-101-336","7","HBA1C","Hemoglobin A1C","7.8","%","7.8",7.8,"%",4.0,5.6,4.0,5.6,"HIGH",null,null,"2","BASELINE","2024-03-29","1"],["GLPX1","LB","GLPX1-101-336","8","ALT","Alanine Aminotransferase","28","U/L","28",28.0,"U/L",10.0,40.0,10.0,40.0,"NORMAL",null,null,"2","BASELINE","2024-04-01","4"],["GLPX1","LB","GLPX1-101-336","9","HBA1C","Hemoglobin A1C","7.9","%","7.9",7.9,"%",4.0,5.6,4.0,5.6,"HIGH",null,null,"3","WEEK 4","2024-04-26","29"],["GLPX1","LB","GLPX1-101-336","10","GLUC","Glucose","10.8","mmol/L","10.8",10.8,"mmol/L",3.9,5.6,3.9,5.6,"HIGH",null,null,"3","WEEK 4","2024-04-27","30"],["GLPX1","LB","GLPX1-101-336","11","ALT","Alanine Aminotransferase","27","U/L","27",27.0,"U/L",10.0,40.0,10.0,40.0,"NORMAL",null,null,"3","WEEK 4","2024-04-28","31"],["GLPX1","LB","GLPX1-101-336","12","CREAT","Creatinine","68","umol/L","68",68.0,"umol/L",62.0,106.0,62.0,106.0,"NORMAL",null,null,"3","WEEK 4","2024-04-29","32"],["GLPX1","LB","GLPX1-101-336","13","HBA1C","Hemoglobin A1C","7.8","%","7.8",7.8,"%",4.0,5.6,4.0,5.6,"HIGH",null,null,"4","WEEK 8","2024-05-23","56"],["GLPX1","LB","GLPX1-101-336","14","GLUC","Glucose","8.6","mmol/L","8.6",8.6,"mmol/L",3.9,5.6,3.9,5.6,"HIGH",null,null,"4","WEEK 8","2024-05-24","57"],["GLPX1","LB","GLPX1-101-336","15","CREAT","Creatinine","87","umol/L","87",87.0,"umol/L",62.0,106.0,62.0,106.0,"NORMAL",null,null,"4","WEEK 8","2024-05-25","58"],["GLPX1","LB","GLPX1-101-336","16","ALT","Alanine Aminotransferase","21","U/L","21",21.0,"U/L",10.0,40.0,10.0,40.0,"NORMAL",null,null,"4","WEEK 8","2024-05-27","60"],["GLPX1","LB","GLPX1-101-336","17","ALT","Alanine Aminotransferase","34","U/L","34",34.0,"U/L",10.0,40.0,10.0,40.0,"NORMAL",null,null,"5","WEEK 12","2024-06-20","84"],["GLPX1","LB","GLPX1-101-336","18","GLUC","Glucose","8.5","mmol/L","8.5",8.5,"mmol/L",3.9,5.6,3.9,5.6,"HIGH",null,null,"5","WEEK 12","2024-06-20","84"],["GLPX1","LB","GLPX1-101-336","19","HBA1C","Hemoglobin A1C","7.4","%","7.4",7.4,"%",4.0,5.6,4.0,5.6,"HIGH",null,null,"5","WEEK 12","2024-06-21","85"],["GLPX1","LB","GLPX1-101-336","20","CREAT","Creatinine","80","umol/L","80",80.0,"umol/L",62.0,106.0,62.0,106.0,"NORMAL",null,null,"5","WEEK 12","2024-06-24","88"],["GLPX1","LB","GLPX1-101-336","21","ALT","Alanine Aminotransferase","21","U/L","21",21.0,"U/L",10.0,40.0,10.0,40.0,"NORMAL",null,null,"6","WEEK 16","2024-07-19","113"],["GLPX1","LB","GLPX1-101-336","22","CREAT","Creatinine","83","umol/L","83",83.0,"umol/L",62.0,106.0,62.0,106.0,"NORMAL",null,null,"6","WEEK 16","2024-07-19","113"],["GLPX1","LB","GLPX1-101-336","23","GLUC","Glucose","11.9","mmol/L","11.9",11.9,"mmol/L",3.9,5.6,3.9,5.6,"HIGH",null,null,"6","WEEK 16","2024-07-20","114"],["GLPX1","LB","GLPX1-101-336","24","HBA1C","Hemoglobin A1C","7","%","7",7.0,"%",4.0,5.6,4.0,5.6,"HIGH",null,null,"6","WEEK 16","2024-07-21","115"],["GLPX1","LB","GLPX1-101-336","25","HBA1C","Hemoglobin A1C","7.4","%","7.4",7.4,"%",4.0,5.6,4.0,5.6,"HIGH",null,null,"7","WEEK 20","2024-08-15","140"],["GLPX1","LB","GLPX1-101-336","26","ALT","Alanine Aminotransferase","21","U/L","21",21.0,"U/L",10.0,40.0,10.0,40.0,"NORMAL",null,null,"7","WEEK 20","2024-08-16","141"],["GLPX1","LB","GLPX1-101-336","27","GLUC","Glucose","7.8","mmol/L","7.8",7.8,"mmol/L",3.9,5.6,3.9,5.6,"HIGH",null,null,"7","WEEK 20","2024-08-17","142"],["GLPX1","LB","GLPX1-101-336","28","CREAT","Creatinine","70","umol/L","70",70.0,"umol/L",62.0,106.0,62.0,106.0,"NORMAL",null,null,"7","WEEK 20","2024-08-18","143"],["GLPX1","LB","GLPX1-101-336","29","GLUC","Glucose","6.6","mmol/L","6.6",6.6,"mmol/L",3.9,5.6,3.9,5.6,"HIGH",null,null,"8","WEEK 26","2024-09-25","181"],["GLPX1","LB","GLPX1-101-336","30","ALT","Alanine Aminotransferase","23","U/L","23",23.0,"U/L",10.0,40.0,10.0,40.0,"NORMAL",null,null,"8","WEEK 26","2024-09-27","183"],["GLPX1","LB","GLPX1-101-336","31","CREAT","Creatinine","81","umol/L","81",81.0,"umol/L",62.0,106.0,62.0,106.0,"NORMAL",null,null,"8","WEEK 26","2024-09-27","183"],["GLPX1","LB","GLPX1-101-336","32","HBA1C","Hemoglobin A1C","6.4","%","6.4",6.4,"%",4.0,5.6,4.0,5.6,"HIGH",null,null,"8","WEEK 26","2024-09-29","185"],["GLPX1","LB","GLPX1-101-369","1","GLUC","Glucose","8.6","mmol/L","8.6",8.6,"mmol/L",3.9,5.6,3.9,5.6,"HIGH",null,"Y","1","SCREENING","2024-05-04","-16"],["GLPX1","LB","GLPX1-101-369","2","ALT","Alanine Aminotransferase","24","U/L","24",24.0,"U/L",7.0,35.0,7.0,35.0,"NORMAL",null,"Y","1","SCREENING","2024-05-05","-15"],["GLPX1","LB","GLPX1-101-369","3","CREAT","Creatinine","67","umol/L","67",67.0,"umol/L",44.0,80.0,44.0,80.0,"NORMAL",null,"Y","1","SCREENING","2024-05-05","-15"],["GLPX1","LB","GLPX1-101-369","4","HBA1C","Hemoglobin A1C","8","%","8",8.0,"%",4.0,5.6,4.0,5.6,"HIGH",null,"Y","1","SCREENING","2024-05-07","-13"],["GLPX1","LB","GLPX1-101-369","5","CREAT","Creatinine","59","umol/L","59",59.0,"umol/L",44.0,80.0,44.0,80.0,"NORMAL",null,null,"2","BASELINE","2024-05-20","1"],["GLPX1","LB","GLPX1-101-369","6","ALT","Alanine Aminotransferase","27","U/L","27",27.0,"U/L",7.0,35.0,7.0,35.0,"NORMAL",null,null,"2","BASELINE","2024-05-21","2"],["GLPX1","LB","GLPX1-101-369","7","GLUC","Glucose","9.4","mmol/L","9.4",9.4,"mmol/L",3.9,5.6,3.9,5.6,"HIGH",null,null,"2","BASELINE","2024-05-21","2"],["GLPX1","LB","GLPX1-101-369","8","HBA1C","Hemoglobin A1C","7.8","%","7.8",7.8,"%",4.0,5.6,4.0,5.6,"HIGH",null,null,"2","BASELINE","2024-05-21","2"],["GLPX1","LB","GLPX1-101-369","9","GLUC","Glucose","10","mmol/L","10",10.0,"mmol/L",3.9,5.6,3.9,5.6,"HIGH",null,null,"3","WEEK 4","2024-06-16","28"],["GLPX1","LB","GLPX1-101-369","10","ALT","Alanine Aminotransferase","22","U/L","22",22.0,"U/L",7.0,35.0,7.0,35.0,"NORMAL",null,null,"3","WEEK 4","2024-06-20","32"],["GLPX1","LB","GLPX1-101-369","11","CREAT","Creatinine","64","umol/L","64",64.0,"umol/L",44.0,80.0,44.0,80.0,"NORMAL",null,null,"3","WEEK 4","2024-06-20","32"],["GLPX1","LB","GLPX1-101-369","12","HBA1C","Hemoglobin A1C","7.7","%","7.7",7.7,"%",4.0,5.6,4.0,5.6,"HIGH",null,null,"3","WEEK 4","2024-06-20","32"],["GLPX1","LB","GLPX1-101-369","13","ALT","Alanine Aminotransferase","29","U/L","29",29.0,"U/L",7.0,35.0,7.0,35.0,"NORMAL",null,null,"4","WEEK 8","2024-07-14","56"],["GLPX1","LB","GLPX1-101-369","14","CREAT","Creatinine","57","umol/L","57",57.0,"umol/L",44.0,80.0,44.0,80.0,"NORMAL",null,null,"4","WEEK 8","2024-07-14","56"],["GLPX1","LB","GLPX1-101-369","15","GLUC","Glucose","9.7","mmol/L","9.7",9.7,"mmol/L",3.9,5.6,3.9,5.6,"HIGH",null,null,"4","WEEK 8","2024-07-16","58"],["GLPX1","LB","GLPX1-101-369","16","HBA1C","Hemoglobin A1C","7.9","%","7.9",7.9,"%",4.0,5.6,4.0,5.6,"HIGH",null,null,"4","WEEK 8","2024-07-18","60"],["GLPX1","LB","GLPX1-101-369","17","GLUC","Glucose","9.6","mmol/L","9.6",9.6,"mmol/L",3.9,5.6,3.9,5.6,"HIGH",null,null,"5","WEEK 12","2024-08-12","85"],["GLPX1","LB","GLPX1-101-369","18","HBA1C","Hemoglobin A1C","7.5","%","7.5",7.5,"%",4.0,5.6,4.0,5.6,"HIGH",null,null,"5","WEEK 12","2024-08-12","85"],["GLPX1","LB","GLPX1-101-369","19","ALT","Alanine Aminotransferase","19","U/L","19",19.0,"U/L",7.0,35.0,7.0,35.0,"NORMAL",null,null,"5","WEEK 12","2024-08-13","86"],["GLPX1","LB","GLPX1-101-369","20","CREAT","Creatinine","76","umol/L","76",76.0,"umol/L",44.0,80.0,44.0,80.0,"NORMAL",null,null,"5","WEEK 12","2024-08-15","88"],["GLPX1","LB","GLPX1-101-369","21","CREAT","Creatinine","51","umol/L","51",51.0,"umol/L",44.0,80.0,44.0,80.0,"NORMAL",null,null,"6","WEEK 16","2024-09-08","112"],["GLPX1","LB","GLPX1-101-369","22","ALT","Alanine Aminotransferase","25","U/L","25",25.0,"U/L",7.0,35.0,7.0,35.0,"NORMAL",null,null,"6","WEEK 16","2024-09-10","114"],["GLPX1","LB","GLPX1-101-369","23","GLUC","Glucose","10.4","mmol/L","10.4",10.4,"mmol/L",3.9,5.6,3.9,5.6,"HIGH",null,null,"6","WEEK 16","2024-09-11","115"],["GLPX1","LB","GLPX1-101-369","24","HBA1C","Hemoglobin A1C","7.8","%","7.8",7.8,"%",4.0,5.6,4.0,5.6,"HIGH",null,null,"6","WEEK 16","2024-09-11","115"],["GLPX1","LB","GLPX1-101-369","25","HBA1C","Hemoglobin A1C","7.7","%","7.7",7.7,"%",4.0,5.6,4.0,5.6,"HIGH",null,null,"7","WEEK 20","2024-10-06","140"],["GLPX1","LB","GLPX1-101-369","26","CREAT","Creatinine","60","umol/L","60",60.0,"umol/L",44.0,80.0,44.0,80.0,"NORMAL",null,null,"7","WEEK 20","2024-10-08","142"],["GLPX1","LB","GLPX1-101-369","27","ALT","Alanine Aminotransferase","21","U/L","21",21.0,"U/L",7.0,35.0,7.0,35.0,"NORMAL",null,null,"7","WEEK 20","2024-10-09","143"],["GLPX1","LB","GLPX1-101-369","28","GLUC","Glucose","11.2","mmol/L","11.2",11.2,"mmol/L",3.9,5.6,3.9,5.6,"HIGH",null,null,"7","WEEK 20","2024-10-09","143"],["GLPX1","LB","GLPX1-101-369","29","ALT","Alanine Aminotransferase","23","U/L","23",23.0,"U/L",7.0,35.0,7.0,35.0,"NORMAL",null,null,"8","WEEK 26","2024-11-18","183"],["GLPX1","LB","GLPX1-101-369","30","GLUC","Glucose","9.1","mmol/L","9.1",9.1,"mmol/L",3.9,5.6,3.9,5.6,"HIGH",null,null,"8","WEEK 26","2024-11-19","184"],["GLPX1","LB","GLPX1-101-369","31","HBA1C","Hemoglobin A1C","7.8","%","7.8",7.8,"%",4.0,5.6,4.0,5.6,"HIGH",null,null,"8","WEEK 26","2024-11-19","184"],["GLPX1","LB","GLPX1-101-369","32","CREAT","Creatinine","67","umol/L","67",67.0,"umol/L",44.0,80.0,44.0,80.0,"NORMAL",null,null,"8","WEEK 26","2024-11-20","185"],["GLPX1","LB","GLPX1-101-400","1","GLUC","Glucose","8.1","mmol/L","8.1",8.1,"mmol/L",3.9,5.6,3.9,5.6,"HIGH",null,"Y","1","SCREENING","2024-03-14","-15"],["GLPX1","LB","GLPX1-101-400","2","ALT","Alanine Aminotransferase","42","U/L","42",42.0,"U/L",10.0,40.0,10.0,40.0,"HIGH",null,"Y","1","SCREENING","2024-03-15","-14"],["GLPX1","LB","GLPX1-101-400","3","CREAT","Creatinine","90","umol/L","90",90.0,"umol/L",62.0,106.0,62.0,106.0,"NORMAL",null,null,"1","SCREENING","2024-03-17","-12"],["GLPX1","LB","GLPX1-101-400","4","HBA1C","Hemoglobin A1C","8.3","%","8.3",8.3,"%",4.0,5.6,4.0,5.6,"HIGH",null,null,"1","SCREENING","2024-03-17","-12"],["GLPX1","LB","GLPX1-101-400","5","CREAT","Creatinine","86","umol/L","86",86.0,"umol/L",62.0,106.0,62.0,106.0,"NORMAL",null,"Y","2","BASELINE","2024-03-28","-1"],["GLPX1","LB","GLPX1-101-400","6","HBA1C","Hemoglobin A1C","8.3","%","8.3",8.3,"%",4.0,5.6,4.0,5.6,"HIGH",null,"Y","2","BASELINE","2024-03-28","-1"],["GLPX1","LB","GLPX1-101-400","7","ALT","Alanine Aminotransferase","13","U/L","13",13.0,"U/L",10.0,40.0,10.0,40.0,"NORMAL",null,null,"2","BASELINE","2024-04-01","4"],["GLPX1","LB","GLPX1-101-400","8","GLUC","Glucose","8.7","mmol/L","8.7",8.7,"mmol/L",3.9,5.6,3.9,5.6,"HIGH",null,null,"2","BASELINE","2024-04-01","4"],["GLPX1","LB","GLPX1-101-400","9","CREAT","Creatinine","91","umol/L","91",91.0,"umol/L",62.0,106.0,62.0,106.0,"NORMAL",null,null,"3","WEEK 4","2024-04-26","29"],["GLPX1","LB","GLPX1-101-400","10","GLUC","Glucose","9.9","mmol/L","9.9",9.9,"mmol/L",3.9,5.6,3.9,5.6,"HIGH",null,null,"3","WEEK 4","2024-04-28","31"],["GLPX1","LB","GLPX1-101-400","11","ALT","Alanine Aminotransferase","25","U/L","25",25.0,"U/L",10.0,40.0,10.0,40.0,"NORMAL",null,null,"3","WEEK 4","2024-04-29","32"],["GLPX1","LB","GLPX1-101-400","12","HBA1C","Hemoglobin A1C","8","%","8",8.0,"%",4.0,5.6,4.0,5.6,"HIGH",null,null,"3","WEEK 4","2024-04-29","32"],["GLPX1","LB","GLPX1-101-400","13","ALT","Alanine Aminotransferase","22","U/L","22",22.0,"U/L",10.0,40.0,10.0,40.0,"NORMAL",null,null,"4","WEEK 8","2024-05-23","56"],["GLPX1","LB","GLPX1-101-400","14","GLUC","Glucose","7.5","mmol/L","7.5",7.5,"mmol/L",3.9,5.6,3.9,5.6,"HIGH",null,null,"4","WEEK 8","2024-05-25","58"],["GLPX1","LB","GLPX1-101-400","15","HBA1C","Hemoglobin A1C","7.4","%","7.4",7.4,"%",4.0,5.6,4.0,5.6,"HIGH",null,null,"4","WEEK 8","2024-05-25","58"],["GLPX1","LB","GLPX1-101-400","16","CREAT","Creatinine","75","umol/L","75",75.0,"umol/L",62.0,106.0,62.0,106.0,"NORMAL",null,null,"4","WEEK 8","2024-05-26","59"],["GLPX1","LB","GLPX1-101-400","17","ALT","Alanine Aminotransferase","40","U/L","40",40.0,"U/L",10.0,40.0,10.0,40.0,"NORMAL",null,null,"5","WEEK 12","2024-06-21","85"],["GLPX1","LB","GLPX1-101-400","18","CREAT","Creatinine","78","umol/L","78",78.0,"umol/L",62.0,106.0,62.0,106.0,"NORMAL",null,null,"5","WEEK 12","2024-06-21","85"],["GLPX1","LB","GLPX1-101-400","19","GLUC","Glucose","8.4","mmol/L","8.4",8.4,"mmol/L",3.9,5.6,3.9,5.6,"HIGH",null,null,"5","WEEK 12","2024-06-23","87"],["GLPX1","LB","GLPX1-101-400","20","HBA1C","Hemoglobin A1C","6.9","%","6.9",6.9,"%",4.0,5.6,4.0,5.6,"HIGH",null,null,"5","WEEK 12","2024-06-23","87"],["GLPX1","LB","GLPX1-101-400","21","ALT","Alanine Aminotransferase","29","U/L","29",29.0,"U/L",10.0,40.0,10.0,40.0,"NORMAL",null,null,"6","WEEK 16","2024-07-19","113"],["GLPX1","LB","GLPX1-101-400","22","GLUC","Glucose","9.8","mmol/L","9.8",9.8,"mmol/L",3.9,5.6,3.9,5.6,"HIGH",null,null,"6","WEEK 16","2024-07-21","115"],["GLPX1","LB","GLPX1-101-400","23","HBA1C","Hemoglobin A1C","7.7","%","7.7",7.7,"%",4.0,5.6,4.0,5.6,"HIGH",null,null,"6","WEEK 16","2024-07-21","115"],["GLPX1","LB","GLPX1-101-400","24","CREAT","Creatinine","94","umol/L","94",94.0,"umol/L",62.0,106.0,62.0,106.0,"NORMAL",null,null,"6","WEEK 16","2024-07-22","116"],["GLPX1","LB","GLPX1-102-005","1","ALT","Alanine Aminotransferase","19","U/L","19",19.0,"U/L",7.0,35.0,7.0,35.0,"NORMAL",null,null,"1","SCREENING","2024-05-12","-15"],["GLPX1","LB","GLPX1-102-005","2","CREAT","Creatinine","59","umol/L","59",59.0,"umol/L",44.0,80.0,44.0,80.0,"NORMAL",null,"Y","1","SCREENING","2024-05-14","-13"],["GLPX1","LB","GLPX1-102-005","3","GLUC","Glucose","8.2","mmol/L","8.2",8.2,"mmol/L",3.9,5.6,3.9,5.6,"HIGH",null,"Y","1","SCREENING","2024-05-15","-12"],["GLPX1","LB","GLPX1-102-005","4","HBA1C","Hemoglobin A1C","8.2","%","8.2",8.2,"%",4.0,5.6,4.0,5.6,"HIGH",null,null,"1","SCREENING","2024-05-15","-12"],["GLPX1","LB","GLPX1-102-005","5","ALT","Alanine Aminotransferase","17","U/L","17",17.0,"U/L",7.0,35.0,7.0,35.0,"NORMAL",null,"Y","2","BASELINE","2024-05-26","-1"],["GLPX1","LB","GLPX1-102-005","6","HBA1C","Hemoglobin A1C","8.1","%","8.1",8.1,"%",4.0,5.6,4.0,5.6,"HIGH",null,"Y","2","BASELINE","2024-05-26","-1"],["GLPX1","LB","GLPX1-102-005","7","CREAT","Creatinine","59","umol/L","59",59.0,"umol/L",44.0,80.0,44.0,80.0,"NORMAL",null,null,"2","BASELINE","2024-05-28","2"],["GLPX1","LB","GLPX1-102-005","8","GLUC","Glucose","9.7","mmol/L","9.7",9.7,"mmol/L",3.9,5.6,3.9,5.6,"HIGH",null,null,"2","BASELINE","2024-05-28","2"],["GLPX1","LB","GLPX1-102-005","9","HBA1C","Hemoglobin A1C","8","%","8",8.0,"%",4.0,5.6,4.0,5.6,"HIGH",null,null,"3","WEEK 4","2024-06-23","28"],["GLPX1","LB","GLPX1-102-005","10","GLUC","Glucose","8.7","mmol/L","8.7",8.7,"mmol/L",3.9,5.6,3.9,5.6,"HIGH",null,null,"3","WEEK 4","2024-06-25","30"],["GLPX1","LB","GLPX1-102-005","11","ALT","Alanine Aminotransferase","33","U/L","33",33.0,"U/L",7.0,35.0,7.0,35.0,"NORMAL",null,null,"3","WEEK 4","2024-06-26","31"],["GLPX1","LB","GLPX1-102-005","12","CREAT","Creatinine","67","umol/L","67",67.0,"umol/L",44.0,80.0,44.0,80.0,"NORMAL",null,null,"3","WEEK 4","2024-06-26","31"],["GLPX1","LB","GLPX1-102-005","13","ALT","Alanine Aminotransferase","26","U/L","26",26.0,"U/L",7.0,35.0,7.0,35.0,"NORMAL",null,null,"4","WEEK 8","2024-07-22","57"],["GLPX1","LB","GLPX1-102-005","14","CREAT","Creatinine","69","umol/L","69",69.0,"umol/L",44.0,80.0,44.0,80.0,"NORMAL",null,null,"4","WEEK 8","2024-07-23","58"],["GLPX1","LB","GLPX1-102-005","15","GLUC","Glucose","8.8","mmol/L","8.8",8.8,"mmol/L",3.9,5.6,3.9,5.6,"HIGH",null,null,"4","WEEK 8","2024-07-24","59"],["GLPX1","LB","GLPX1-102-005","16","HBA1C","Hemoglobin A1C","8.1","%","8.1",8.1,"%",4.0,5.6,4.0,5.6,"HIGH",null,null,"4","WEEK 8","2024-07-25","60"],["GLPX1","LB","GLPX1-102-005","17","HBA1C","Hemoglobin A1C","7.7","%","7.7",7.7,"%",4.0,5.6,4.0,5.6,"HIGH",null,null,"5","WEEK 12","2024-08-18","84"],["GLPX1","LB","GLPX1-102-005","18","ALT","Alanine Aminotransferase","20","U/L","20",20.0,"U/L",7.0,35.0,7.0,35.0,"NORMAL",null,null,"5","WEEK 12","2024-08-20","86"],["GLPX1","LB","GLPX1-102-005","19","GLUC","Glucose","9.9","mmol/L","9.9",9.9,"mmol/L",3.9,5.6,3.9,5.6,"HIGH",null,null,"5","WEEK 12","2024-08-21","87"],["GLPX1","LB","GLPX1-102-005","20","CREAT","Creatinine","65","umol/L","65",65.0,"umol/L",44.0,80.0,44.0,80.0,"NORMAL",null,null,"5","WEEK 12","2024-08-22","88"],["GLPX1","LB","GLPX1-102-005","21","ALT","Alanine Aminotransferase","23","U/L","23",23.0,"U/L",7.0,35.0,7.0,35.0,"NORMAL",null,null,"6","WEEK 16","2024-09-15","112"],["GLPX1","LB","GLPX1-102-005","22","CREAT","Creatinine","64","umol/L","64",64.0,"umol/L",44.0,80.0,44.0,80.0,"NORMAL",null,null,"6","WEEK 16","2024-09-15","112"],["GLPX1","LB","GLPX1-102-005","23","HBA1C","Hemoglobin A1C","8.1","%","8.1",8.1,"%",4.0,5.6,4.0,5.6,"HIGH",null,null,"6","WEEK 16","2024-09-17","114"],["GLPX1","LB","GLPX1-102-005","24","GLUC","Glucose","8.6","mmol/L","8.6",8.6,"mmol/L",3.9,5.6,3.9,5.6,"HIGH",null,null,"6","WEEK 16","2024-09-18","115"],["GLPX1","LB","GLPX1-102-005","25","CREAT","Creatinine","70","umol/L","70",70.0,"umol/L",44.0,80.0,44.0,80.0,"NORMAL",null,null,"7","WEEK 20","2024-10-13","140"],["GLPX1","LB","GLPX1-102-005","26","HBA1C","Hemoglobin A1C","8","%","8",8.0,"%",4.0,5.6,4.0,5.6,"HIGH",null,null,"7","WEEK 20","2024-10-13","140"],["GLPX1","LB","GLPX1-102-005","27","GLUC","Glucose","10.5","mmol/L","10.5",10.5,"mmol/L",3.9,5.6,3.9,5.6,"HIGH",null,null,"7","WEEK 20","2024-10-15","142"],["GLPX1","LB","GLPX1-102-005","28","ALT","Alanine Aminotransferase","27","U/L","27",27.0,"U/L",7.0,35.0,7.0,35.0,"NORMAL",null,null,"7","WEEK 20","2024-10-17","144"],["GLPX1","LB","GLPX1-102-005","29","CREAT","Creatinine","56","umol/L","56",56.0,"umol/L",44.0,80.0,44.0,80.0,"NORMAL",null,null,"8","WEEK 26","2024-11-23","181"],["GLPX1","LB","GLPX1-102-005","30","HBA1C","Hemoglobin A1C","8.5","%","8.5",8.5,"%",4.0,5.6,4.0,5.6,"HIGH",null,null,"8","WEEK 26","2024-11-23","181"],["GLPX1","LB","GLPX1-102-005","31","ALT","Alanine Aminotransferase","14","U/L","14",14.0,"U/L",7.0,35.0,7.0,35.0,"NORMAL",null,null,"8","WEEK 26","2024-11-27","185"],["GLPX1","LB","GLPX1-102-005","32","GLUC","Glucose","8.2","mmol/L","8.2",8.2,"mmol/L",3.9,5.6,3.9,5.6,"HIGH",null,null,"8","WEEK 26","2024-11-27","185"],["GLPX1","LB","GLPX1-102-007","1","HBA1C","Hemoglobin A1C","11.2","%","11.2",11.2,"%",4.0,5.6,4.0,5.6,"HIGH",null,"Y","1","SCREENING","2024-02-16","-15"],["GLPX1","LB","GLPX1-102-007","2","ALT","Alanine Aminotransferase","20","U/L","20",20.0,"U/L",10.0,40.0,10.0,40.0,"NORMAL",null,"Y","1","SCREENING","2024-02-17","-14"],["GLPX1","LB","GLPX1-102-007","3","GLUC","Glucose","10.4","mmol/L","10.4",10.4,"mmol/L",3.9,5.6,3.9,5.6,"HIGH",null,"Y","1","SCREENING","2024-02-17","-14"],["GLPX1","LB","GLPX1-102-007","4","CREAT","Creatinine","89","umol/L","89",89.0,"umol/L",62.0,106.0,62.0,106.0,"NORMAL",null,"Y","1","SCREENING","2024-02-19","-12"],["GLPX1","LB","GLPX1-102-007","5","ALT","Alanine Aminotransferase","35","U/L","35",35.0,"U/L",10.0,40.0,10.0,40.0,"NORMAL",null,null,"2","BASELINE","2024-03-03","2"],["GLPX1","LB","GLPX1-102-007","6","CREAT","Creatinine","83","umol/L","83",83.0,"umol/L",62.0,106.0,62.0,106.0,"NORMAL",null,null,"2","BASELINE","2024-03-03","2"],["GLPX1","LB","GLPX1-102-007","7","HBA1C","Hemoglobin A1C","10.8","%","10.8",10.8,"%",4.0,5.6,4.0,5.6,"HIGH",null,null,"2","BASELINE","2024-03-04","3"],["GLPX1","LB","GLPX1-102-007","8","GLUC","Glucose","10.1","mmol/L","10.1",10.1,"mmol/L",3.9,5.6,3.9,5.6,"HIGH",null,null,"2","BASELINE","2024-03-05","4"],["GLPX1","LB","GLPX1-102-007","9","ALT","Alanine Aminotransferase","17","U/L","17",17.0,"U/L",10.0,40.0,10.0,40.0,"NORMAL",null,null,"3","WEEK 4","2024-03-31","30"],["GLPX1","LB","GLPX1-102-007","10","GLUC","Glucose","8.2","mmol/L","8.2",8.2,"mmol/L",3.9,5.6,3.9,5.6,"HIGH",null,null,"3","WEEK 4","2024-03-31","30"],["GLPX1","LB","GLPX1-102-007","11","HBA1C","Hemoglobin A1C","10.9","%","10.9",10.9,"%",4.0,5.6,4.0,5.6,"HIGH",null,null,"3","WEEK 4","2024-04-01","31"],["GLPX1","LB","GLPX1-102-007","12","CREAT","Creatinine","63","umol/L","63",63.0,"umol/L",62.0,106.0,62.0,106.0,"NORMAL",null,null,"3","WEEK 4","2024-04-02","32"],["GLPX1","LB","GLPX1-102-007","13","ALT","Alanine Aminotransferase","26","U/L","26",26.0,"U/L",10.0,40.0,10.0,40.0,"NORMAL",null,null,"4","WEEK 8","2024-04-29","59"],["GLPX1","LB","GLPX1-102-007","14","CREAT","Creatinine","68","umol/L","68",68.0,"umol/L",62.0,106.0,62.0,106.0,"NORMAL",null,null,"4","WEEK 8","2024-04-30","60"],["GLPX1","LB","GLPX1-102-007","15","GLUC","Glucose","10","mmol/L","10",10.0,"mmol/L",3.9,5.6,3.9,5.6,"HIGH",null,null,"4","WEEK 8","2024-04-30","60"],["GLPX1","LB","GLPX1-102-007","16","HBA1C","Hemoglobin A1C","10.3","%","10.3",10.3,"%",4.0,5.6,4.0,5.6,"HIGH",null,null,"4","WEEK 8","2024-04-30","60"],["GLPX1","LB","GLPX1-102-007","17","GLUC","Glucose","8.6","mmol/L","8.6",8.6,"mmol/L",3.9,5.6,3.9,5.6,"HIGH",null,null,"5","WEEK 12","2024-05-24","84"],["GLPX1","LB","GLPX1-102-007","18","ALT","Alanine Aminotransferase","14","U/L","14",14.0,"U/L",10.0,40.0,10.0,40.0,"NORMAL",null,null,"5","WEEK 12","2024-05-27","87"],["GLPX1","LB","GLPX1-102-007","19","HBA1C","Hemoglobin A1C","10.1","%","10.1",10.1,"%",4.0,5.6,4.0,5.6,"HIGH",null,null,"5","WEEK 12","2024-05-27","87"],["GLPX1","LB","GLPX1-102-007","20","CREAT","Creatinine","82","umol/L","82",82.0,"umol/L",62.0,106.0,62.0,106.0,"NORMAL",null,null,"5","WEEK 12","2024-05-28","88"],["GLPX1","LB","GLPX1-102-007","21","ALT","Alanine Aminotransferase","22","U/L","22",22.0,"U/L",10.0,40.0,10.0,40.0,"NORMAL",null,null,"6","WEEK 16","2024-06-21","112"],["GLPX1","LB","GLPX1-102-007","22","HBA1C","Hemoglobin A1C","10.4","%","10.4",10.4,"%",4.0,5.6,4.0,5.6,"HIGH",null,null,"6","WEEK 16","2024-06-21","112"],["GLPX1","LB","GLPX1-102-007","23","GLUC","Glucose","7.7","mmol/L","7.7",7.7,"mmol/L",3.9,5.6,3.9,5.6,"HIGH",null,null,"6","WEEK 16","2024-06-23","114"],["GLPX1","LB","GLPX1-102-007","24","CREAT","Creatinine","81","umol/L","81",81.0,"umol/L",62.0,106.0,62.0,106.0,"NORMAL",null,null,"6","WEEK 16","2024-06-25","116"],["GLPX1","LB","GLPX1-102-007","25","GLUC","Glucose","8.4","mmol/L","8.4",8.4,"mmol/L",3.9,5.6,3.9,5.6,"HIGH",null,null,"7","WEEK 20","2024-07-21","142"],["GLPX1","LB","GLPX1-102-007","26","HBA1C","Hemoglobin A1C","9.9","%","9.9",9.9,"%",4.0,5.6,4.0,5.6,"HIGH",null,null,"7","WEEK 20","2024-07-21","142"],["GLPX1","LB","GLPX1-102-007","27","ALT","Alanine Aminotransferase","27","U/L","27",27.0,"U/L",10.0,40.0,10.0,40.0,"NORMAL",null,null,"7","WEEK 20","2024-07-22","143"],["GLPX1","LB","GLPX1-102-007","28","CREAT","Creatinine","71","umol/L","71",71.0,"umol/L",62.0,106.0,62.0,106.0,"NORMAL",null,null,"7","WEEK 20","2024-07-22","143"],["GLPX1","LB","GLPX1-102-007","29","ALT","Alanine Aminotransferase","30","U/L","30",30.0,"U/L",10.0,40.0,10.0,40.0,"NORMAL",null,null,"8","WEEK 26","2024-08-30","182"],["GLPX1","LB","GLPX1-102-007","30","GLUC","Glucose","7.8","mmol/L","7.8",7.8,"mmol/L",3.9,5.6,3.9,5.6,"HIGH",null,null,"8","WEEK 26","2024-08-30","182"],["GLPX1","LB","GLPX1-102-007","31","HBA1C","Hemoglobin A1C","9.4","%","9.4",9.4,"%",4.0,5.6,4.0,5.6,"HIGH",null,null,"8","WEEK 26","2024-09-01","184"],["GLPX1","LB","GLPX1-102-007","32","CREAT","Creatinine","76","umol/L","76",76.0,"umol/L",62.0,106.0,62.0,106.0,"NORMAL",null,null,"8","WEEK 26","2024-09-02","185"],["GLPX1","LB","GLPX1-102-024","1","ALT","Alanine Aminotransferase","17","U/L","17",17.0,"U/L",10.0,40.0,10.0,40.0,"NORMAL",null,"Y","1","SCREENING","2024-03-02","-16"],["GLPX1","LB","GLPX1-102-024","2","GLUC","Glucose","10.1","mmol/L","10.1",10.1,"mmol/L",3.9,5.6,3.9,5.6,"HIGH",null,"Y","1","SCREENING","2024-03-02","-16"],["GLPX1","LB","GLPX1-102-024","3","HBA1C","Hemoglobin A1C","8.6","%","8.6",8.6,"%",4.0,5.6,4.0,5.6,"HIGH",null,"Y","1","SCREENING","2024-03-05","-13"],["GLPX1","LB","GLPX1-102-024","4","CREAT","Creatinine","80","umol/L","80",80.0,"umol/L",62.0,106.0,62.0,106.0,"NORMAL",null,"Y","1","SCREENING","2024-03-06","-12"],["GLPX1","LB","GLPX1-102-024","5","GLUC","Glucose","9","mmol/L","9",9.0,"mmol/L",3.9,5.6,3.9,5.6,"HIGH",null,null,"2","BASELINE","2024-03-18","1"],["GLPX1","LB","GLPX1-102-024","6","CREAT","Creatinine","77","umol/L","77",77.0,"umol/L",62.0,106.0,62.0,106.0,"NORMAL",null,null,"2","BASELINE","2024-03-19","2"],["GLPX1","LB","GLPX1-102-024","7","HBA1C","Hemoglobin A1C","9","%","9",9.0,"%",4.0,5.6,4.0,5.6,"HIGH",null,null,"2","BASELINE","2024-03-20","3"],["GLPX1","LB","GLPX1-102-024","8","ALT","Alanine Aminotransferase","59","U/L","59",59.0,"U/L",10.0,40.0,10.0,40.0,"HIGH",null,null,"2","BASELINE","2024-03-21","4"],["GLPX1","LB","GLPX1-102-024","9","CREAT","Creatinine","87","umol/L","87",87.0,"umol/L",62.0,106.0,62.0,106.0,"NORMAL",null,null,"3","WEEK 4","2024-04-15","29"],["GLPX1","LB","GLPX1-102-024","10","HBA1C","Hemoglobin A1C","8.6","%","8.6",8.6,"%",4.0,5.6,4.0,5.6,"HIGH",null,null,"3","WEEK 4","2024-04-15","29"],["GLPX1","LB","GLPX1-102-024","11","ALT","Alanine Aminotransferase","26","U/L","26",26.0,"U/L",10.0,40.0,10.0,40.0,"NORMAL",null,null,"3","WEEK 4","2024-04-16","30"],["GLPX1","LB","GLPX1-102-024","12","GLUC","Glucose","9.1","mmol/L","9.1",9.1,"mmol/L",3.9,5.6,3.9,5.6,"HIGH",null,null,"3","WEEK 4","2024-04-17","31"],["GLPX1","LB","GLPX1-102-024","13","CREAT","Creatinine","80","umol/L","80",80.0,"umol/L",62.0,106.0,62.0,106.0,"NORMAL",null,null,"4","WEEK 8","2024-05-12","56"],["GLPX1","LB","GLPX1-102-024","14","GLUC","Glucose","6.9","mmol/L","6.9",6.9,"mmol/L",3.9,5.6,3.9,5.6,"HIGH",null,null,"4","WEEK 8","2024-05-14","58"],["GLPX1","LB","GLPX1-102-024","15","HBA1C","Hemoglobin A1C","8.5","%","8.5",8.5,"%",4.0,5.6,4.0,5.6,"HIGH",null,null,"4","WEEK 8","2024-05-15","59"],["GLPX1","LB","GLPX1-102-024","16","ALT","Alanine Aminotransferase","29","U/L","29",29.0,"U/L",10.0,40.0,10.0,40.0,"NORMAL",null,null,"4","WEEK 8","2024-05-16","60"],["GLPX1","LB","GLPX1-102-024","17","HBA1C","Hemoglobin A1C","8.5","%","8.5",8.5,"%",4.0,5.6,4.0,5.6,"HIGH",null,null,"5","WEEK 12","2024-06-09","84"],["GLPX1","LB","GLPX1-102-024","18","ALT","Alanine Aminotransferase","19","U/L","19",19.0,"U/L",10.0,40.0,10.0,40.0,"NORMAL",null,null,"5","WEEK 12","2024-06-10","85"],["GLPX1","LB","GLPX1-102-024","19","GLUC","Glucose","8.7","mmol/L","8.7",8.7,"mmol/L",3.9,5.6,3.9,5.6,"HIGH",null,null,"5","WEEK 12","2024-06-11","86"],["GLPX1","LB","GLPX1-102-024","20","CREAT","Creatinine","65","umol/L","65",65.0,"umol/L",62.0,106.0,62.0,106.0,"NORMAL",null,null,"5","WEEK 12","2024-06-12","87"],["GLPX1","LB","GLPX1-102-024","21","ALT","Alanine Aminotransferase","43","U/L","43",43.0,"U/L",10.0,40.0,10.0,40.0,"HIGH",null,null,"6","WEEK 16","2024-07-08","113"],["GLPX1","LB","GLPX1-102-024","22","CREAT","Creatinine","73","umol/L","73",73.0,"umol/L",62.0,106.0,62.0,106.0,"NORMAL",null,null,"6","WEEK 16","2024-07-09","114"],["GLPX1","LB","GLPX1-102-024","23","GLUC","Glucose","9.3","mmol/L","9.3",9.3,"mmol/L",3.9,5.6,3.9,5.6,"HIGH",null,null,"6","WEEK 16","2024-07-09","114"],["GLPX1","LB","GLPX1-102-024","24","HBA1C","Hemoglobin A1C","8.6","%","8.6",8.6,"%",4.0,5.6,4.0,5.6,"HIGH",null,null,"6","WEEK 16","2024-07-10","115"],["GLPX1","LB","GLPX1-102-024","25","GLUC","Glucose","8.7","mmol/L","8.7",8.7,"mmol/L",3.9,5.6,3.9,5.6,"HIGH",null,null,"7","WEEK 20","2024-08-06","142"],["GLPX1","LB","GLPX1-102-024","26","HBA1C","Hemoglobin A1C","8.3","%","8.3",8.3,"%",4.0,5.6,4.0,5.6,"HIGH",null,null,"7","WEEK 20","2024-08-06","142"],["GLPX1","LB","GLPX1-102-024","27","ALT","Alanine Aminotransferase","21","U/L","21",21.0,"U/L",10.0,40.0,10.0,40.0,"NORMAL",null,null,"7","WEEK 20","2024-08-08","144"],["GLPX1","LB","GLPX1-102-024","28","CREAT","Creatinine","85","umol/L","85",85.0,"umol/L",62.0,106.0,62.0,106.0,"NORMAL",null,null,"7","WEEK 20","2024-08-08","144"],["GLPX1","LB","GLPX1-102-024","29","GLUC","Glucose","7.1","mmol/L","7.1",7.1,"mmol/L",3.9,5.6,3.9,5.6,"HIGH",null,null,"8","WEEK 26","2024-09-14","181"],["GLPX1","LB","GLPX1-102-024","30","CREAT","Creatinine","83","umol/L","83",83.0,"umol/L",62.0,106.0,62.0,106.0,"NORMAL",null,null,"8","WEEK 26","2024-09-15","182"],["GLPX1","LB","GLPX1-102-024","31","HBA1C","Hemoglobin A1C","8.7","%","8.7",8.7,"%",4.0,5.6,4.0,5.6,"HIGH",null,null,"8","WEEK 26","2024-09-15","182"],["GLPX1","LB","GLPX1-102-024","32","ALT","Alanine Aminotransferase","13","U/L","13",13.0,"U/L",10.0,40.0,10.0,40.0,"NORMAL",null,null,"8","WEEK 26","2024-09-18","185"],["GLPX1","LB","GLPX1-102-025","1","CREAT","Creatinine","61","umol/L","61",61.0,"umol/L",44.0,80.0,44.0,80.0,"NORMAL",null,"Y","1","SCREENING","2024-04-09","-16"],["GLPX1","LB","GLPX1-102-025","2","GLUC","Glucose","10.1","mmol/L","10.1",10.1,"mmol/L",3.9,5.6,3.9,5.6,"HIGH",null,null,"1","SCREENING","2024-04-09","-16"],["GLPX1","LB","GLPX1-102-025","3","HBA1C","Hemoglobin A1C","6.9","%","6.9",6.9,"%",4.0,5.6,4.0,5.6,"HIGH",null,null,"1","SCREENING","2024-04-11","-14"],["GLPX1","LB","GLPX1-102-025","4","ALT","Alanine Aminotransferase","34","U/L","34",34.0,"U/L",7.0,35.0,7.0,35.0,"NORMAL",null,"Y","1","SCREENING","2024-04-12","-13"],["GLPX1","LB","GLPX1-102-025","5","GLUC","Glucose","10.1","mmol/L","10.1",10.1,"mmol/L",3.9,5.6,3.9,5.6,"HIGH",null,"Y","2","BASELINE","2024-04-24","-1"],["GLPX1","LB","GLPX1-102-025","6","HBA1C","Hemoglobin A1C","6.9","%","6.9",6.9,"%",4.0,5.6,4.0,5.6,"HIGH",null,"Y","2","BASELINE","2024-04-24","-1"],["GLPX1","LB","GLPX1-102-025","7","CREAT","Creatinine","54","umol/L","54",54.0,"umol/L",44.0,80.0,44.0,80.0,"NORMAL",null,null,"2","BASELINE","2024-04-25","1"],["GLPX1","LB","GLPX1-102-025","8","ALT","Alanine Aminotransferase","17","U/L","17",17.0,"U/L",7.0,35.0,7.0,35.0,"NORMAL",null,null,"2","BASELINE","2024-04-27","3"],["GLPX1","LB","GLPX1-102-025","9","HBA1C","Hemoglobin A1C","6.3","%","6.3",6.3,"%",4.0,5.6,4.0,5.6,"HIGH",null,null,"3","WEEK 4","2024-05-22","28"],["GLPX1","LB","GLPX1-102-025","10","GLUC","Glucose","10.7","mmol/L","10.7",10.7,"mmol/L",3.9,5.6,3.9,5.6,"HIGH",null,null,"3","WEEK 4","2024-05-24","30"],["GLPX1","LB","GLPX1-102-025","11","CREAT","Creatinine","61","umol/L","61",61.0,"umol/L",44.0,80.0,44.0,80.0,"NORMAL",null,null,"3","WEEK 4","2024-05-25","31"],["GLPX1","LB","GLPX1-102-025","12","ALT","Alanine Aminotransferase","33","U/L","33",33.0,"U/L",7.0,35.0,7.0,35.0,"NORMAL",null,null,"3","WEEK 4","2024-05-26","32"],["GLPX1","LB","GLPX1-102-025","13","CREAT","Creatinine","66","umol/L","66",66.0,"umol/L",44.0,80.0,44.0,80.0,"NORMAL",null,null,"4","WEEK 8","2024-06-19","56"],["GLPX1","LB","GLPX1-102-025","14","GLUC","Glucose","7.3","mmol/L","7.3",7.3,"mmol/L",3.9,5.6,3.9,5.6,"HIGH",null,null,"4","WEEK 8","2024-06-19","56"],["GLPX1","LB","GLPX1-102-025","15","HBA1C","Hemoglobin A1C","6.4","%","6.4",6.4,"%",4.0,5.6,4.0,5.6,"HIGH",null,null,"4","WEEK 8","2024-06-21","58"],["GLPX1","LB","GLPX1-102-025","16","ALT","Alanine Aminotransferase","28","U/L","28",28.0,"U/L",7.0,35.0,7.0,35.0,"NORMAL",null,null,"4","WEEK 8","2024-06-22","59"],["GLPX1","LB","GLPX1-102-025","17","ALT","Alanine Aminotransferase","18","U/L","18",18.0,"U/L",7.0,35.0,7.0,35.0,"NORMAL",null,null,"5","WEEK 12","2024-07-17","84"],["GLPX1","LB","GLPX1-102-025","18","GLUC","Glucose","6.7","mmol/L","6.7",6.7,"mmol/L",3.9,5.6,3.9,5.6,"HIGH",null,null,"5","WEEK 12","2024-07-18","85"],["GLPX1","LB","GLPX1-102-025","19","HBA1C","Hemoglobin A1C","6.6","%","6.6",6.6,"%",4.0,5.6,4.0,5.6,"HIGH",null,null,"5","WEEK 12","2024-07-20","87"],["GLPX1","LB","GLPX1-102-025","20","CREAT","Creatinine","71","umol/L","71",71.0,"umol/L",44.0,80.0,44.0,80.0,"NORMAL",null,null,"5","WEEK 12","2024-07-21","88"],["GLPX1","LB","GLPX1-102-025","21","GLUC","Glucose","8.8","mmol/L","8.8",8.8,"mmol/L",3.9,5.6,3.9,5.6,"HIGH",null,null,"6","WEEK 16","2024-08-15","113"],["GLPX1","LB","GLPX1-102-025","22","CREAT","Creatinine","60","umol/L","60",60.0,"umol/L",44.0,80.0,44.0,80.0,"NORMAL",null,null,"6","WEEK 16","2024-08-16","114"],["GLPX1","LB","GLPX1-102-025","23","ALT","Alanine Aminotransferase","33","U/L","33",33.0,"U/L",7.0,35.0,7.0,35.0,"NORMAL",null,null,"6","WEEK 16","2024-08-17","115"],["GLPX1","LB","GLPX1-102-025","24","HBA1C","Hemoglobin A1C","5.9","%","5.9",5.9,"%",4.0,5.6,4.0,5.6,"HIGH",null,null,"6","WEEK 16","2024-08-18","116"],["GLPX1","LB","GLPX1-102-025","25","HBA1C","Hemoglobin A1C","5.8","%","5.8",5.8,"%",4.0,5.6,4.0,5.6,"HIGH",null,null,"7","WEEK 20","2024-09-13","142"],["GLPX1","LB","GLPX1-102-025","26","CREAT","Creatinine","55","umol/L","55",55.0,"umol/L",44.0,80.0,44.0,80.0,"NORMAL",null,null,"7","WEEK 20","2024-09-14","143"],["GLPX1","LB","GLPX1-102-025","27","ALT","Alanine Aminotransferase","17","U/L","17",17.0,"U/L",7.0,35.0,7.0,35.0,"NORMAL",null,null,"7","WEEK 20","2024-09-15","144"],["GLPX1","LB","GLPX1-102-025","28","GLUC","Glucose","9.2","mmol/L","9.2",9.2,"mmol/L",3.9,5.6,3.9,5.6,"HIGH",null,null,"7","WEEK 20","2024-09-15","144"],["GLPX1","LB","GLPX1-102-025","29","ALT","Alanine Aminotransferase","8","U/L","8",8.0,"U/L",7.0,35.0,7.0,35.0,"NORMAL",null,null,"8","WEEK 26","2024-10-22","181"],["GLPX1","LB","GLPX1-102-025","30","HBA1C","Hemoglobin A1C","5.2","%","5.2",5.2,"%",4.0,5.6,4.0,5.6,"NORMAL",null,null,"8","WEEK 26","2024-10-22","181"],["GLPX1","LB","GLPX1-102-025","31","CREAT","Creatinine","76","umol/L","76",76.0,"umol/L",44.0,80.0,44.0,80.0,"NORMAL",null,null,"8","WEEK 26","2024-10-23","182"],["GLPX1","LB","GLPX1-102-025","32","GLUC","Glucose","6.9","mmol/L","6.9",6.9,"mmol/L",3.9,5.6,3.9,5.6,"HIGH",null,null,"8","WEEK 26","2024-10-25","184"],["GLPX1","LB","GLPX1-102-029","1","ALT","Alanine Aminotransferase","45","U/L","45",45.0,"U/L",10.0,40.0,10.0,40.0,"HIGH",null,null,"1","SCREENING","2024-03-26","-15"],["GLPX1","LB","GLPX1-102-029","2","CREAT","Creatinine","68","umol/L","68",68.0,"umol/L",62.0,106.0,62.0,106.0,"NORMAL",null,"Y","1","SCREENING","2024-03-26","-15"],["GLPX1","LB","GLPX1-102-029","3","HBA1C","Hemoglobin A1C","8.6","%","8.6",8.6,"%",4.0,5.6,4.0,5.6,"HIGH",null,"Y","1","SCREENING","2024-03-27","-14"],["GLPX1","LB","GLPX1-102-029","4","GLUC","Glucose","9.2","mmol/L","9.2",9.2,"mmol/L",3.9,5.6,3.9,5.6,"HIGH",null,"Y","1","SCREENING","2024-03-29","-12"],["GLPX1","LB","GLPX1-102-029","5","ALT","Alanine Aminotransferase","21","U/L","21",21.0,"U/L",10.0,40.0,10.0,40.0,"NORMAL",null,"Y","2","BASELINE","2024-04-09","-1"],["GLPX1","LB","GLPX1-102-029","6","GLUC","Glucose","7.8","mmol/L","7.8",7.8,"mmol/L",3.9,5.6,3.9,5.6,"HIGH",null,null,"2","BASELINE","2024-04-10","1"],["GLPX1","LB","GLPX1-102-029","7","CREAT","Creatinine","89","umol/L","89",89.0,"umol/L",62.0,106.0,62.0,106.0,"NORMAL",null,null,"2","BASELINE","2024-04-11","2"],["GLPX1","LB","GLPX1-102-029","8","HBA1C","Hemoglobin A1C","8.2","%","8.2",8.2,"%",4.0,5.6,4.0,5.6,"HIGH",null,null,"2","BASELINE","2024-04-12","3"],["GLPX1","LB","GLPX1-102-029","9","GLUC","Glucose","9.2","mmol/L","9.2",9.2,"mmol/L",3.9,5.6,3.9,5.6,"HIGH",null,null,"3","WEEK 4","2024-05-08","29"],["GLPX1","LB","GLPX1-102-029","10","ALT","Alanine Aminotransferase","24","U/L","24",24.0,"U/L",10.0,40.0,10.0,40.0,"NORMAL",null,null,"3","WEEK 4","2024-05-09","30"],["GLPX1","LB","GLPX1-102-029","11","CREAT","Creatinine","85","umol/L","85",85.0,"umol/L",62.0,106.0,62.0,106.0,"NORMAL",null,null,"3","WEEK 4","2024-05-09","30"],["GLPX1","LB","GLPX1-102-029","12","HBA1C","Hemoglobin A1C","8.2","%","8.2",8.2,"%",4.0,5.6,4.0,5.6,"HIGH",null,null,"3","WEEK 4","2024-05-09","30"],["GLPX1","LB","GLPX1-102-029","13","CREAT","Creatinine","80","umol/L","80",80.0,"umol/L",62.0,106.0,62.0,106.0,"NORMAL",null,null,"4","WEEK 8","2024-06-05","57"],["GLPX1","LB","GLPX1-102-029","14","ALT","Alanine Aminotransferase","13","U/L","13",13.0,"U/L",10.0,40.0,10.0,40.0,"NORMAL",null,null,"4","WEEK 8","2024-06-06","58"],["GLPX1","LB","GLPX1-102-029","15","HBA1C","Hemoglobin A1C","7.7","%","7.7",7.7,"%",4.0,5.6,4.0,5.6,"HIGH",null,null,"4","WEEK 8","2024-06-07","59"],["GLPX1","LB","GLPX1-102-029","16","GLUC","Glucose","9.1","mmol/L","9.1",9.1,"mmol/L",3.9,5.6,3.9,5.6,"HIGH",null,null,"4","WEEK 8","2024-06-08","60"],["GLPX1","LB","GLPX1-102-029","17","GLUC","Glucose","11.3","mmol/L","11.3",11.3,"mmol/L",3.9,5.6,3.9,5.6,"HIGH",null,null,"5","WEEK 12","2024-07-02","84"],["GLPX1","LB","GLPX1-102-029","18","CREAT","Creatinine","89","umol/L","89",89.0,"umol/L",62.0,106.0,62.0,106.0,"NORMAL",null,null,"5","WEEK 12","2024-07-04","86"],["GLPX1","LB","GLPX1-102-029","19","ALT","Alanine Aminotransferase","24","U/L","24",24.0,"U/L",10.0,40.0,10.0,40.0,"NORMAL",null,null,"5","WEEK 12","2024-07-05","87"],["GLPX1","LB","GLPX1-102-029","20","HBA1C","Hemoglobin A1C","7.6","%","7.6",7.6,"%",4.0,5.6,4.0,5.6,"HIGH",null,null,"5","WEEK 12","2024-07-05","87"],["GLPX1","LB","GLPX1-102-029","21","HBA1C","Hemoglobin A1C","7.8","%","7.8",7.8,"%",4.0,5.6,4.0,5.6,"HIGH",null,null,"6","WEEK 16","2024-07-30","112"],["GLPX1","LB","GLPX1-102-029","22","GLUC","Glucose","8.1","mmol/L","8.1",8.1,"mmol/L",3.9,5.6,3.9,5.6,"HIGH",null,null,"6","WEEK 16","2024-08-01","114"],["GLPX1","LB","GLPX1-102-029","23","ALT","Alanine Aminotransferase","30","U/L","30",30.0,"U/L",10.0,40.0,10.0,40.0,"NORMAL",null,null,"6","WEEK 16","2024-08-02","115"],["GLPX1","LB","GLPX1-102-029","24","CREAT","Creatinine","73","umol/L","73",73.0,"umol/L",62.0,106.0,62.0,106.0,"NORMAL",null,null,"6","WEEK 16","2024-08-03","116"],["GLPX1","LB","GLPX1-102-029","25","ALT","Alanine Aminotransferase","30","U/L","30",30.0,"U/L",10.0,40.0,10.0,40.0,"NORMAL",null,null,"7","WEEK 20","2024-08-27","140"],["GLPX1","LB","GLPX1-102-029","26","GLUC","Glucose","7.9","mmol/L","7.9",7.9,"mmol/L",3.9,5.6,3.9,5.6,"HIGH",null,null,"7","WEEK 20","2024-08-29","142"],["GLPX1","LB","GLPX1-102-029","27","CREAT","Creatinine","92","umol/L","92",92.0,"umol/L",62.0,106.0,62.0,106.0,"NORMAL",null,null,"7","WEEK 20","2024-08-30","143"],["GLPX1","LB","GLPX1-102-029","28","HBA1C","Hemoglobin A1C","7.6","%","7.6",7.6,"%",4.0,5.6,4.0,5.6,"HIGH",null,null,"7","WEEK 20","2024-08-30","143"],["GLPX1","LB","GLPX1-102-029","29","CREAT","Creatinine","92","umol/L","92",92.0,"umol/L",62.0,106.0,62.0,106.0,"NORMAL",null,null,"8","WEEK 26","2024-10-07","181"],["GLPX1","LB","GLPX1-102-029","30","HBA1C","Hemoglobin A1C","6.8","%","6.8",6.8,"%",4.0,5.6,4.0,5.6,"HIGH",null,null,"8","WEEK 26","2024-10-09","183"],["GLPX1","LB","GLPX1-102-029","31","ALT","Alanine Aminotransferase","30","U/L","30",30.0,"U/L",10.0,40.0,10.0,40.0,"NORMAL",null,null,"8","WEEK 26","2024-10-11","185"],["GLPX1","LB","GLPX1-102-029","32","GLUC","Glucose","8.1","mmol/L","8.1",8.1,"mmol/L",3.9,5.6,3.9,5.6,"HIGH",null,null,"8","WEEK 26","2024-10-11","185"],["GLPX1","LB","GLPX1-102-040","1","GLUC","Glucose","11.5","mmol/L","11.5",11.5,"mmol/L",3.9,5.6,3.9,5.6,"HIGH",null,"Y","1","SCREENING","2024-04-21","-16"],["GLPX1","LB","GLPX1-102-040","2","HBA1C","Hemoglobin A1C","8.7","%","8.7",8.7,"%",4.0,5.6,4.0,5.6,"HIGH",null,"Y","1","SCREENING","2024-04-21","-16"],["GLPX1","LB","GLPX1-102-040","3","ALT","Alanine Aminotransferase","30","U/L","30",30.0,"U/L",7.0,35.0,7.0,35.0,"NORMAL",null,"Y","1","SCREENING","2024-04-24","-13"],["GLPX1","LB","GLPX1-102-040","4","CREAT","Creatinine","59","umol/L","59",59.0,"umol/L",44.0,80.0,44.0,80.0,"NORMAL",null,null,"1","SCREENING","2024-04-25","-12"],["GLPX1","LB","GLPX1-102-040","5","CREAT","Creatinine","65","umol/L","65",65.0,"umol/L",44.0,80.0,44.0,80.0,"NORMAL",null,"Y","2","BASELINE","2024-05-06","-1"],["GLPX1","LB","GLPX1-102-040","6","GLUC","Glucose","8.8","mmol/L","8.8",8.8,"mmol/L",3.9,5.6,3.9,5.6,"HIGH",null,null,"2","BASELINE","2024-05-08","2"],["GLPX1","LB","GLPX1-102-040","7","ALT","Alanine Aminotransferase","29","U/L","29",29.0,"U/L",7.0,35.0,7.0,35.0,"NORMAL",null,null,"2","BASELINE","2024-05-09","3"],["GLPX1","LB","GLPX1-102-040","8","HBA1C","Hemoglobin A1C","8.6","%","8.6",8.6,"%",4.0,5.6,4.0,5.6,"HIGH",null,null,"2","BASELINE","2024-05-10","4"],["GLPX1","LB","GLPX1-102-040","9","CREAT","Creatinine","65","umol/L","65",65.0,"umol/L",44.0,80.0,44.0,80.0,"NORMAL",null,null,"3","WEEK 4","2024-06-05","30"],["GLPX1","LB","GLPX1-102-040","10","ALT","Alanine Aminotransferase","44","U/L","44",44.0,"U/L",7.0,35.0,7.0,35.0,"HIGH",null,null,"3","WEEK 4","2024-06-06","31"],["GLPX1","LB","GLPX1-102-040","11","GLUC","Glucose","9.2","mmol/L","9.2",9.2,"mmol/L",3.9,5.6,3.9,5.6,"HIGH",null,null,"3","WEEK 4","2024-06-06","31"],["GLPX1","LB","GLPX1-102-040","12","HBA1C","Hemoglobin A1C","8.4","%","8.4",8.4,"%",4.0,5.6,4.0,5.6,"HIGH",null,null,"3","WEEK 4","2024-06-06","31"],["GLPX1","LB","GLPX1-102-040","13","ALT","Alanine Aminotransferase","33","U/L","33",33.0,"U/L",7.0,35.0,7.0,35.0,"NORMAL",null,null,"4","WEEK 8","2024-07-02","57"],["GLPX1","LB","GLPX1-102-040","14","GLUC","Glucose","9.1","mmol/L","9.1",9.1,"mmol/L",3.9,5.6,3.9,5.6,"HIGH",null,null,"4","WEEK 8","2024-07-02","57"],["GLPX1","LB","GLPX1-102-040","15","CREAT","Creatinine","85","umol/L","85",85.0,"umol/L",44.0,80.0,44.0,80.0,"HIGH",null,null,"4","WEEK 8","2024-07-03","58"],["GLPX1","LB","GLPX1-102-040","16","HBA1C","Hemoglobin A1C","8.2","%","8.2",8.2,"%",4.0,5.6,4.0,5.6,"HIGH",null,null,"4","WEEK 8","2024-07-05","60"],["GLPX1","LB","GLPX1-102-040","17","ALT","Alanine Aminotransferase","23","U/L","23",23.0,"U/L",7.0,35.0,7.0,35.0,"NORMAL",null,null,"5","WEEK 12","2024-07-30","85"],["GLPX1","LB","GLPX1-102-040","18","CREAT","Creatinine","73","umol/L","73",73.0,"umol/L",44.0,80.0,44.0,80.0,"NORMAL",null,null,"5","WEEK 12","2024-07-30","85"],["GLPX1","LB","GLPX1-102-040","19","GLUC","Glucose","7.7","mmol/L","7.7",7.7,"mmol/L",3.9,5.6,3.9,5.6,"HIGH",null,null,"5","WEEK 12","2024-08-01","87"],["GLPX1","LB","GLPX1-102-040","20","HBA1C","Hemoglobin A1C","8.1","%","8.1",8.1,"%",4.0,5.6,4.0,5.6,"HIGH",null,null,"5","WEEK 12","2024-08-01","87"],["GLPX1","LB","GLPX1-102-040","21","ALT","Alanine Aminotransferase","27","U/L","27",27.0,"U/L",7.0,35.0,7.0,35.0,"NORMAL",null,null,"6","WEEK 16","2024-08-26","112"],["GLPX1","LB","GLPX1-102-040","22","GLUC","Glucose","9.8","mmol/L","9.8",9.8,"mmol/L",3.9,5.6,3.9,5.6,"HIGH",null,null,"6","WEEK 16","2024-08-26","112"],["GLPX1","LB","GLPX1-102-040","23","CREAT","Creatinine","56","umol/L","56",56.0,"umol/L",44.0,80.0,44.0,80.0,"NORMAL",null,null,"6","WEEK 16","2024-08-27","113"],["GLPX1","LB","GLPX1-102-040","24","HBA1C","Hemoglobin A1C","7.8","%","7.8",7.8,"%",4.0,5.6,4.0,5.6,"HIGH",null,null,"6","WEEK 16","2024-08-28","114"],["GLPX1","LB","GLPX1-102-040","25","HBA1C","Hemoglobin A1C","7.5","%","7.5",7.5,"%",4.0,5.6,4.0,5.6,"HIGH",null,null,"7","WEEK 20","2024-09-23","140"],["GLPX1","LB","GLPX1-102-040","26","GLUC","Glucose","7.5","mmol/L","7.5",7.5,"mmol/L",3.9,5.6,3.9,5.6,"HIGH",null,null,"7","WEEK 20","2024-09-24","141"],["GLPX1","LB","GLPX1-102-040","27","CREAT","Creatinine","64","umol/L","64",64.0,"umol/L",44.0,80.0,44.0,80.0,"NORMAL",null,null,"7","WEEK 20","2024-09-25","142"],["GLPX1","LB","GLPX1-102-040","28","ALT","Alanine Aminotransferase","30","U/L","30",30.0,"U/L",7.0,35.0,7.0,35.0,"NORMAL",null,null,"7","WEEK 20","2024-09-26","143"],["GLPX1","LB","GLPX1-102-040","29","CREAT","Creatinine","57","umol/L","57",57.0,"umol/L",44.0,80.0,44.0,80.0,"NORMAL",null,null,"8","WEEK 26","2024-11-03","181"],["GLPX1","LB","GLPX1-102-040","30","GLUC","Glucose","6.6","mmol/L","6.6",6.6,"mmol/L",3.9,5.6,3.9,5.6,"HIGH",null,null,"8","WEEK 26","2024-11-04","182"],["GLPX1","LB","GLPX1-102-040","31","HBA1C","Hemoglobin A1C","7.1","%","7.1",7.1,"%",4.0,5.6,4.0,5.6,"HIGH",null,null,"8","WEEK 26","2024-11-04","182"],["GLPX1","LB","GLPX1-102-040","32","ALT","Alanine Aminotransferase","33","U/L","33",33.0,"U/L",7.0,35.0,7.0,35.0,"NORMAL",null,null,"8","WEEK 26","2024-11-07","185"],["GLPX1","LB","GLPX1-102-072","1","ALT","Alanine Aminotransferase","31","U/L","31",31.0,"U/L",7.0,35.0,7.0,35.0,"NORMAL",null,"Y","1","SCREENING","2024-05-18","-15"],["GLPX1","LB","GLPX1-102-072","2","HBA1C","Hemoglobin A1C","7.1","%","7.1",7.1,"%",4.0,5.6,4.0,5.6,"HIGH",null,"Y","1","SCREENING","2024-05-18","-15"],["GLPX1","LB","GLPX1-102-072","3","CREAT","Creatinine","77","umol/L","77",77.0,"umol/L",44.0,80.0,44.0,80.0,"NORMAL",null,"Y","1","SCREENING","2024-05-19","-14"],["GLPX1","LB","GLPX1-102-072","4","GLUC","Glucose","9.1","mmol/L","9.1",9.1,"mmol/L",3.9,5.6,3.9,5.6,"HIGH",null,"Y","1","SCREENING","2024-05-19","-14"],["GLPX1","LB","GLPX1-102-072","5","ALT","Alanine Aminotransferase","16","U/L","16",16.0,"U/L",7.0,35.0,7.0,35.0,"NORMAL",null,null,"2","BASELINE","2024-06-03","2"],["GLPX1","LB","GLPX1-102-072","6","CREAT","Creatinine","74","umol/L","74",74.0,"umol/L",44.0,80.0,44.0,80.0,"NORMAL",null,null,"2","BASELINE","2024-06-03","2"],["GLPX1","LB","GLPX1-102-072","7","GLUC","Glucose","10.5","mmol/L","10.5",10.5,"mmol/L",3.9,5.6,3.9,5.6,"HIGH",null,null,"2","BASELINE","2024-06-04","3"],["GLPX1","LB","GLPX1-102-072","8","HBA1C","Hemoglobin A1C","7","%","7",7.0,"%",4.0,5.6,4.0,5.6,"HIGH",null,null,"2","BASELINE","2024-06-05","4"],["GLPX1","LB","GLPX1-102-072","9","GLUC","Glucose","11","mmol/L","11",11.0,"mmol/L",3.9,5.6,3.9,5.6,"HIGH",null,null,"3","WEEK 4","2024-06-29","28"],["GLPX1","LB","GLPX1-102-072","10","CREAT","Creatinine","69","umol/L","69",69.0,"umol/L",44.0,80.0,44.0,80.0,"NORMAL",null,null,"3","WEEK 4","2024-06-30","29"],["GLPX1","LB","GLPX1-102-072","11","HBA1C","Hemoglobin A1C","7.2","%","7.2",7.2,"%",4.0,5.6,4.0,5.6,"HIGH",null,null,"3","WEEK 4","2024-06-30","29"],["GLPX1","LB","GLPX1-102-072","12","ALT","Alanine Aminotransferase","27","U/L","27",27.0,"U/L",7.0,35.0,7.0,35.0,"NORMAL",null,null,"3","WEEK 4","2024-07-01","30"],["GLPX1","LB","GLPX1-102-072","13","CREAT","Creatinine","73","umol/L","73",73.0,"umol/L",44.0,80.0,44.0,80.0,"NORMAL",null,null,"4","WEEK 8","2024-07-27","56"],["GLPX1","LB","GLPX1-102-072","14","HBA1C","Hemoglobin A1C","7.2","%","7.2",7.2,"%",4.0,5.6,4.0,5.6,"HIGH",null,null,"4","WEEK 8","2024-07-27","56"],["GLPX1","LB","GLPX1-102-072","15","ALT","Alanine Aminotransferase","22","U/L","22",22.0,"U/L",7.0,35.0,7.0,35.0,"NORMAL",null,null,"4","WEEK 8","2024-07-30","59"],["GLPX1","LB","GLPX1-102-072","16","GLUC","Glucose","8.3","mmol/L","8.3",8.3,"mmol/L",3.9,5.6,3.9,5.6,"HIGH",null,null,"4","WEEK 8","2024-07-31","60"],["GLPX1","LB","GLPX1-102-072","17","HBA1C","Hemoglobin A1C","6.9","%","6.9",6.9,"%",4.0,5.6,4.0,5.6,"HIGH",null,null,"5","WEEK 12","2024-08-24","84"],["GLPX1","LB","GLPX1-102-072","18","ALT","Alanine Aminotransferase","30","U/L","30",30.0,"U/L",7.0,35.0,7.0,35.0,"NORMAL",null,null,"5","WEEK 12","2024-08-27","87"],["GLPX1","LB","GLPX1-102-072","19","GLUC","Glucose","7.5","mmol/L","7.5",7.5,"mmol/L",3.9,5.6,3.9,5.6,"HIGH",null,null,"5","WEEK 12","2024-08-27","87"],["GLPX1","LB","GLPX1-102-072","20","CREAT","Creatinine","63","umol/L","63",63.0,"umol/L",44.0,80.0,44.0,80.0,"NORMAL",null,null,"5","WEEK 12","2024-08-28","88"],["GLPX1","LB","GLPX1-102-072","21","ALT","Alanine Aminotransferase","32","U/L","32",32.0,"U/L",7.0,35.0,7.0,35.0,"NORMAL",null,null,"6","WEEK 16","2024-09-21","112"],["GLPX1","LB","GLPX1-102-072","22","CREAT","Creatinine","56","umol/L","56",56.0,"umol/L",44.0,80.0,44.0,80.0,"NORMAL",null,null,"6","WEEK 16","2024-09-21","112"],["GLPX1","LB","GLPX1-102-072","23","GLUC","Glucose","10.1","mmol/L","10.1",10.1,"mmol/L",3.9,5.6,3.9,5.6,"HIGH",null,null,"6","WEEK 16","2024-09-24","115"],["GLPX1","LB","GLPX1-102-072","24","HBA1C","Hemoglobin A1C","6.9","%","6.9",6.9,"%",4.0,5.6,4.0,5.6,"HIGH",null,null,"6","WEEK 16","2024-09-25","116"],["GLPX1","LB","GLPX1-102-072","25","ALT","Alanine Aminotransferase","21","U/L","21",21.0,"U/L",7.0,35.0,7.0,35.0,"NORMAL",null,null,"7","WEEK 20","2024-10-19","140"],["GLPX1","LB","GLPX1-102-072","26","GLUC","Glucose","9.2","mmol/L","9.2",9.2,"mmol/L",3.9,5.6,3.9,5.6,"HIGH",null,null,"7","WEEK 20","2024-10-20","141"],["GLPX1","LB","GLPX1-102-072","27","CREAT","Creatinine","74","umol/L","74",74.0,"umol/L",44.0,80.0,44.0,80.0,"NORMAL",null,null,"7","WEEK 20","2024-10-22","143"],["GLPX1","LB","GLPX1-102-072","28","HBA1C","Hemoglobin A1C","6.9","%","6.9",6.9,"%",4.0,5.6,4.0,5.6,"HIGH",null,null,"7","WEEK 20","2024-10-23","144"],["GLPX1","LB","GLPX1-102-072","29","ALT","Alanine Aminotransferase","6","U/L","6",6.0,"U/L",7.0,35.0,7.0,35.0,"LOW",null,null,"8","WEEK 26","2024-11-29","181"],["GLPX1","LB","GLPX1-102-072","30","GLUC","Glucose","8","mmol/L","8",8.0,"mmol/L",3.9,5.6,3.9,5.6,"HIGH",null,null,"8","WEEK 26","2024-11-29","181"],["GLPX1","LB","GLPX1-102-072","31","CREAT","Creatinine","68","umol/L","68",68.0,"umol/L",44.0,80.0,44.0,80.0,"NORMAL",null,null,"8","WEEK 26","2024-12-01","183"],["GLPX1","LB","GLPX1-102-072","32","HBA1C","Hemoglobin A1C","7.2","%","7.2",7.2,"%",4.0,5.6,4.0,5.6,"HIGH",null,null,"8","WEEK 26","2024-12-01","183"],["GLPX1","LB","GLPX1-102-074","1","CREAT","Creatinine","69","umol/L","69",69.0,"umol/L",62.0,106.0,62.0,106.0,"NORMAL",null,"Y","1","SCREENING","2024-05-11","-16"],["GLPX1","LB","GLPX1-102-074","2","GLUC","Glucose","9.3","mmol/L","9.3",9.3,"mmol/L",3.9,5.6,3.9,5.6,"HIGH",null,null,"1","SCREENING","2024-05-13","-14"],["GLPX1","LB","GLPX1-102-074","3","ALT","Alanine Aminotransferase","29","U/L","29",29.0,"U/L",10.0,40.0,10.0,40.0,"NORMAL",null,"Y","1","SCREENING","2024-05-15","-12"],["GLPX1","LB","GLPX1-102-074","4","HBA1C","Hemoglobin A1C","8.8","%","8.8",8.8,"%",4.0,5.6,4.0,5.6,"HIGH",null,null,"1","SCREENING","2024-05-15","-12"],["GLPX1","LB","GLPX1-102-074","5","GLUC","Glucose","9.3","mmol/L","9.3",9.3,"mmol/L",3.9,5.6,3.9,5.6,"HIGH",null,"Y","2","BASELINE","2024-05-26","-1"],["GLPX1","LB","GLPX1-102-074","6","HBA1C","Hemoglobin A1C","8.6","%","8.6",8.6,"%",4.0,5.6,4.0,5.6,"HIGH",null,"Y","2","BASELINE","2024-05-26","-1"],["GLPX1","LB","GLPX1-102-074","7","ALT","Alanine Aminotransferase","34","U/L","34",34.0,"U/L",10.0,40.0,10.0,40.0,"NORMAL",null,null,"2","BASELINE","2024-05-27","1"],["GLPX1","LB","GLPX1-102-074","8","CREAT","Creatinine","69","umol/L","69",69.0,"umol/L",62.0,106.0,62.0,106.0,"NORMAL",null,null,"2","BASELINE","2024-05-27","1"],["GLPX1","LB","GLPX1-102-074","9","ALT","Alanine Aminotransferase","38","U/L","38",38.0,"U/L",10.0,40.0,10.0,40.0,"NORMAL",null,null,"3","WEEK 4","2024-06-23","28"],["GLPX1","LB","GLPX1-102-074","10","HBA1C","Hemoglobin A1C","8.9","%","8.9",8.9,"%",4.0,5.6,4.0,5.6,"HIGH",null,null,"3","WEEK 4","2024-06-23","28"],["GLPX1","LB","GLPX1-102-074","11","CREAT","Creatinine","94","umol/L","94",94.0,"umol/L",62.0,106.0,62.0,106.0,"NORMAL",null,null,"3","WEEK 4","2024-06-25","30"],["GLPX1","LB","GLPX1-102-074","12","GLUC","Glucose","8.9","mmol/L","8.9",8.9,"mmol/L",3.9,5.6,3.9,5.6,"HIGH",null,null,"3","WEEK 4","2024-06-26","31"],["GLPX1","LB","GLPX1-102-074","13","ALT","Alanine Aminotransferase","32","U/L","32",32.0,"U/L",10.0,40.0,10.0,40.0,"NORMAL",null,null,"4","WEEK 8","2024-07-21","56"],["GLPX1","LB","GLPX1-102-074","14","CREAT","Creatinine","84","umol/L","84",84.0,"umol/L",62.0,106.0,62.0,106.0,"NORMAL",null,null,"4","WEEK 8","2024-07-21","56"],["GLPX1","LB","GLPX1-102-074","15","GLUC","Glucose","10","mmol/L","10",10.0,"mmol/L",3.9,5.6,3.9,5.6,"HIGH",null,null,"4","WEEK 8","2024-07-21","56"],["GLPX1","LB","GLPX1-102-074","16","HBA1C","Hemoglobin A1C","9.3","%","9.3",9.3,"%",4.0,5.6,4.0,5.6,"HIGH",null,null,"4","WEEK 8","2024-07-25","60"],["GLPX1","LB","GLPX1-102-074","17","GLUC","Glucose","9.2","mmol/L","9.2",9.2,"mmol/L",3.9,5.6,3.9,5.6,"HIGH",null,null,"5","WEEK 12","2024-08-18","84"],["GLPX1","LB","GLPX1-102-074","18","CREAT","Creatinine","87","umol/L","87",87.0,"umol/L",62.0,106.0,62.0,106.0,"NORMAL",null,null,"5","WEEK 12","2024-08-19","85"],["GLPX1","LB","GLPX1-102-074","19","HBA1C","Hemoglobin A1C","8.9","%","8.9",8.9,"%",4.0,5.6,4.0,5.6,"HIGH",null,null,"5","WEEK 12","2024-08-20","86"],["GLPX1","LB","GLPX1-102-074","20","ALT","Alanine Aminotransferase","20","U/L","20",20.0,"U/L",10.0,40.0,10.0,40.0,"NORMAL",null,null,"5","WEEK 12","2024-08-21","87"],["GLPX1","LB","GLPX1-102-074","21","GLUC","Glucose","9.9","mmol/L","9.9",9.9,"mmol/L",3.9,5.6,3.9,5.6,"HIGH",null,null,"6","WEEK 16","2024-09-15","112"],["GLPX1","LB","GLPX1-102-074","22","CREAT","Creatinine","79","umol/L","79",79.0,"umol/L",62.0,106.0,62.0,106.0,"NORMAL",null,null,"6","WEEK 16","2024-09-17","114"],["GLPX1","LB","GLPX1-102-074","23","ALT","Alanine Aminotransferase","41","U/L","41",41.0,"U/L",10.0,40.0,10.0,40.0,"HIGH",null,null,"6","WEEK 16","2024-09-18","115"],["GLPX1","LB","GLPX1-102-074","24","HBA1C","Hemoglobin A1C","8.5","%","8.5",8.5,"%",4.0,5.6,4.0,5.6,"HIGH",null,null,"6","WEEK 16","2024-09-18","115"],["GLPX1","LB","GLPX1-102-074","25","HBA1C","Hemoglobin A1C","8.7","%","8.7",8.7,"%",4.0,5.6,4.0,5.6,"HIGH",null,null,"7","WEEK 20","2024-10-13","140"],["GLPX1","LB","GLPX1-102-074","26","ALT","Alanine Aminotransferase","28","U/L","28",28.0,"U/L",10.0,40.0,10.0,40.0,"NORMAL",null,null,"7","WEEK 20","2024-10-16","143"],["GLPX1","LB","GLPX1-102-074","27","GLUC","Glucose","10.1","mmol/L","10.1",10.1,"mmol/L",3.9,5.6,3.9,5.6,"HIGH",null,null,"7","WEEK 20","2024-10-16","143"],["GLPX1","LB","GLPX1-102-074","28","CREAT","Creatinine","58","umol/L","58",58.0,"umol/L",62.0,106.0,62.0,106.0,"LOW",null,null,"7","WEEK 20","2024-10-17","144"],["GLPX1","LB","GLPX1-102-074","29","ALT","Alanine Aminotransferase","14","U/L","14",14.0,"U/L",10.0,40.0,10.0,40.0,"NORMAL",null,null,"8","WEEK 26","2024-11-25","183"],["GLPX1","LB","GLPX1-102-074","30","CREAT","Creatinine","82","umol/L","82",82.0,"umol/L",62.0,106.0,62.0,106.0,"NORMAL",null,null,"8","WEEK 26","2024-11-25","183"],["GLPX1","LB","GLPX1-102-074","31","HBA1C","Hemoglobin A1C","8.7","%","8.7",8.7,"%",4.0,5.6,4.0,5.6,"HIGH",null,null,"8","WEEK 26","2024-11-25","183"],["GLPX1","LB","GLPX1-102-074","32","GLUC","Glucose","9.4","mmol/L","9.4",9.4,"mmol/L",3.9,5.6,3.9,5.6,"HIGH",null,null,"8","WEEK 26","2024-11-26","184"],["GLPX1","LB","GLPX1-102-075","1","GLUC","Glucose","8.6","mmol/L","8.6",8.6,"mmol/L",3.9,5.6,3.9,5.6,"HIGH",null,"Y","1","SCREENING","2024-04-01","-15"],["GLPX1","LB","GLPX1-102-075","2","CREAT","Creatinine","69","umol/L","69",69.0,"umol/L",44.0,80.0,44.0,80.0,"NORMAL",null,"Y","1","SCREENING","2024-04-02","-14"],["GLPX1","LB","GLPX1-102-075","3","ALT","Alanine Aminotransferase","27","U/L","27",27.0,"U/L",7.0,35.0,7.0,35.0,"NORMAL",null,"Y","1","SCREENING","2024-04-04","-12"],["GLPX1","LB","GLPX1-102-075","4","HBA1C","Hemoglobin A1C","8.8","%","8.8",8.8,"%",4.0,5.6,4.0,5.6,"HIGH",null,"Y","1","SCREENING","2024-04-04","-12"],["GLPX1","LB","GLPX1-102-075","5","ALT","Alanine Aminotransferase","28","U/L","28",28.0,"U/L",7.0,35.0,7.0,35.0,"NORMAL",null,null,"2","BASELINE","2024-04-16","1"],["GLPX1","LB","GLPX1-102-075","6","GLUC","Glucose","8.7","mmol/L","8.7",8.7,"mmol/L",3.9,5.6,3.9,5.6,"HIGH",null,null,"2","BASELINE","2024-04-16","1"],["GLPX1","LB","GLPX1-102-075","7","CREAT","Creatinine","72","umol/L","72",72.0,"umol/L",44.0,80.0,44.0,80.0,"NORMAL",null,null,"2","BASELINE","2024-04-17","2"],["GLPX1","LB","GLPX1-102-075","8","HBA1C","Hemoglobin A1C","8.8","%","8.8",8.8,"%",4.0,5.6,4.0,5.6,"HIGH",null,null,"2","BASELINE","2024-04-18","3"],["GLPX1","LB","GLPX1-102-075","9","HBA1C","Hemoglobin A1C","8.3","%","8.3",8.3,"%",4.0,5.6,4.0,5.6,"HIGH",null,null,"3","WEEK 4","2024-05-13","28"],["GLPX1","LB","GLPX1-102-075","10","ALT","Alanine Aminotransferase","31","U/L","31",31.0,"U/L",7.0,35.0,7.0,35.0,"NORMAL",null,null,"3","WEEK 4","2024-05-14","29"],["GLPX1","LB","GLPX1-102-075","11","CREAT","Creatinine","64","umol/L","64",64.0,"umol/L",44.0,80.0,44.0,80.0,"NORMAL",null,null,"3","WEEK 4","2024-05-16","31"],["GLPX1","LB","GLPX1-102-075","12","GLUC","Glucose","10.1","mmol/L","10.1",10.1,"mmol/L",3.9,5.6,3.9,5.6,"HIGH",null,null,"3","WEEK 4","2024-05-17","32"],["GLPX1","LB","GLPX1-102-075","13","CREAT","Creatinine","69","umol/L","69",69.0,"umol/L",44.0,80.0,44.0,80.0,"NORMAL",null,null,"4","WEEK 8","2024-06-12","58"],["GLPX1","LB","GLPX1-102-075","14","ALT","Alanine Aminotransferase","24","U/L","24",24.0,"U/L",7.0,35.0,7.0,35.0,"NORMAL",null,null,"4","WEEK 8","2024-06-13","59"],["GLPX1","LB","GLPX1-102-075","15","GLUC","Glucose","10.5","mmol/L","10.5",10.5,"mmol/L",3.9,5.6,3.9,5.6,"HIGH",null,null,"4","WEEK 8","2024-06-14","60"],["GLPX1","LB","GLPX1-102-075","16","HBA1C","Hemoglobin A1C","8.2","%","8.2",8.2,"%",4.0,5.6,4.0,5.6,"HIGH",null,null,"4","WEEK 8","2024-06-14","60"],["GLPX1","LB","GLPX1-102-075","17","CREAT","Creatinine","80","umol/L","80",80.0,"umol/L",44.0,80.0,44.0,80.0,"NORMAL",null,null,"5","WEEK 12","2024-07-10","86"],["GLPX1","LB","GLPX1-102-075","18","ALT","Alanine Aminotransferase","28","U/L","28",28.0,"U/L",7.0,35.0,7.0,35.0,"NORMAL",null,null,"5","WEEK 12","2024-07-11","87"],["GLPX1","LB","GLPX1-102-075","19","GLUC","Glucose","8.4","mmol/L","8.4",8.4,"mmol/L",3.9,5.6,3.9,5.6,"HIGH",null,null,"5","WEEK 12","2024-07-11","87"],["GLPX1","LB","GLPX1-102-075","20","HBA1C","Hemoglobin A1C","8.1","%","8.1",8.1,"%",4.0,5.6,4.0,5.6,"HIGH",null,null,"5","WEEK 12","2024-07-11","87"],["GLPX1","LB","GLPX1-102-075","21","ALT","Alanine Aminotransferase","24","U/L","24",24.0,"U/L",7.0,35.0,7.0,35.0,"NORMAL",null,null,"6","WEEK 16","2024-08-05","112"],["GLPX1","LB","GLPX1-102-075","22","CREAT","Creatinine","66","umol/L","66",66.0,"umol/L",44.0,80.0,44.0,80.0,"NORMAL",null,null,"6","WEEK 16","2024-08-05","112"],["GLPX1","LB","GLPX1-102-075","23","GLUC","Glucose","9.1","mmol/L","9.1",9.1,"mmol/L",3.9,5.6,3.9,5.6,"HIGH",null,null,"6","WEEK 16","2024-08-05","112"],["GLPX1","LB","GLPX1-102-075","24","HBA1C","Hemoglobin A1C","7.8","%","7.8",7.8,"%",4.0,5.6,4.0,5.6,"HIGH",null,null,"6","WEEK 16","2024-08-06","113"],["GLPX1","LB","GLPX1-102-075","25","GLUC","Glucose","8.1","mmol/L","8.1",8.1,"mmol/L",3.9,5.6,3.9,5.6,"HIGH",null,null,"7","WEEK 20","2024-09-04","142"],["GLPX1","LB","GLPX1-102-075","26","ALT","Alanine Aminotransferase","29","U/L","29",29.0,"U/L",7.0,35.0,7.0,35.0,"NORMAL",null,null,"7","WEEK 20","2024-09-06","144"],["GLPX1","LB","GLPX1-102-075","27","CREAT","Creatinine","55","umol/L","55",55.0,"umol/L",44.0,80.0,44.0,80.0,"NORMAL",null,null,"7","WEEK 20","2024-09-06","144"],["GLPX1","LB","GLPX1-102-075","28","HBA1C","Hemoglobin A1C","8.4","%","8.4",8.4,"%",4.0,5.6,4.0,5.6,"HIGH",null,null,"7","WEEK 20","2024-09-06","144"],["GLPX1","LB","GLPX1-102-075","29","HBA1C","Hemoglobin A1C","8.3","%","8.3",8.3,"%",4.0,5.6,4.0,5.6,"HIGH",null,null,"8","WEEK 26","2024-10-13","181"],["GLPX1","LB","GLPX1-102-075","30","GLUC","Glucose","8.8","mmol/L","8.8",8.8,"mmol/L",3.9,5.6,3.9,5.6,"HIGH",null,null,"8","WEEK 26","2024-10-14","182"],["GLPX1","LB","GLPX1-102-075","31","ALT","Alanine Aminotransferase","17","U/L","17",17.0,"U/L",7.0,35.0,7.0,35.0,"NORMAL",null,null,"8","WEEK 26","2024-10-15","183"],["GLPX1","LB","GLPX1-102-075","32","CREAT","Creatinine","54","umol/L","54",54.0,"umol/L",44.0,80.0,44.0,80.0,"NORMAL",null,null,"8","WEEK 26","2024-10-16","184"],["GLPX1","LB","GLPX1-102-077","1","ALT","Alanine Aminotransferase","20","U/L","20",20.0,"U/L",10.0,40.0,10.0,40.0,"NORMAL",null,"Y","1","SCREENING","2024-04-18","-16"],["GLPX1","LB","GLPX1-102-077","2","CREAT","Creatinine","63","umol/L","63",63.0,"umol/L",62.0,106.0,62.0,106.0,"NORMAL",null,null,"1","SCREENING","2024-04-21","-13"],["GLPX1","LB","GLPX1-102-077","3","GLUC","Glucose","10.7","mmol/L","10.7",10.7,"mmol/L",3.9,5.6,3.9,5.6,"HIGH",null,"Y","1","SCREENING","2024-04-21","-13"],["GLPX1","LB","GLPX1-102-077","4","HBA1C","Hemoglobin A1C","8.3","%","8.3",8.3,"%",4.0,5.6,4.0,5.6,"HIGH",null,"Y","1","SCREENING","2024-04-22","-12"],["GLPX1","LB","GLPX1-102-077","5","CREAT","Creatinine","86","umol/L","86",86.0,"umol/L",62.0,106.0,62.0,106.0,"NORMAL",null,"Y","2","BASELINE","2024-05-03","-1"],["GLPX1","LB","GLPX1-102-077","6","ALT","Alanine Aminotransferase","27","U/L","27",27.0,"U/L",10.0,40.0,10.0,40.0,"NORMAL",null,null,"2","BASELINE","2024-05-05","2"],["GLPX1","LB","GLPX1-102-077","7","GLUC","Glucose","12.1","mmol/L","12.1",12.1,"mmol/L",3.9,5.6,3.9,5.6,"HIGH",null,null,"2","BASELINE","2024-05-06","3"],["GLPX1","LB","GLPX1-102-077","8","HBA1C","Hemoglobin A1C","8.8","%","8.8",8.8,"%",4.0,5.6,4.0,5.6,"HIGH",null,null,"2","BASELINE","2024-05-06","3"],["GLPX1","LB","GLPX1-102-077","9","GLUC","Glucose","9.3","mmol/L","9.3",9.3,"mmol/L",3.9,5.6,3.9,5.6,"HIGH",null,null,"3","WEEK 4","2024-06-02","30"],["GLPX1","LB","GLPX1-102-077","10","ALT","Alanine Aminotransferase","23","U/L","23",23.0,"U/L",10.0,40.0,10.0,40.0,"NORMAL",null,null,"3","WEEK 4","2024-06-03","31"],["GLPX1","LB","GLPX1-102-077","11","CREAT","Creatinine","75","umol/L","75",75.0,"umol/L",62.0,106.0,62.0,106.0,"NORMAL",null,null,"3","WEEK 4","2024-06-03","31"],["GLPX1","LB","GLPX1-102-077","12","HBA1C","Hemoglobin A1C","8.4","%","8.4",8.4,"%",4.0,5.6,4.0,5.6,"HIGH",null,null,"3","WEEK 4","2024-06-04","32"],["GLPX1","LB","GLPX1-102-077","13","HBA1C","Hemoglobin A1C","7.8","%","7.8",7.8,"%",4.0,5.6,4.0,5.6,"HIGH",null,null,"4","WEEK 8","2024-06-29","57"],["GLPX1","LB","GLPX1-102-077","14","CREAT","Creatinine","81","umol/L","81",81.0,"umol/L",62.0,106.0,62.0,106.0,"NORMAL",null,null,"4","WEEK 8","2024-06-30","58"],["GLPX1","LB","GLPX1-102-077","15","ALT","Alanine Aminotransferase","32","U/L","32",32.0,"U/L",10.0,40.0,10.0,40.0,"NORMAL",null,null,"4","WEEK 8","2024-07-02","60"],["GLPX1","LB","GLPX1-102-077","16","GLUC","Glucose","8.9","mmol/L","8.9",8.9,"mmol/L",3.9,5.6,3.9,5.6,"HIGH",null,null,"4","WEEK 8","2024-07-02","60"],["GLPX1","LB","GLPX1-102-077","17","CREAT","Creatinine","66","umol/L","66",66.0,"umol/L",62.0,106.0,62.0,106.0,"NORMAL",null,null,"5","WEEK 12","2024-07-26","84"],["GLPX1","LB","GLPX1-102-077","18","ALT","Alanine Aminotransferase","31","U/L","31",31.0,"U/L",10.0,40.0,10.0,40.0,"NORMAL",null,null,"5","WEEK 12","2024-07-27","85"],["GLPX1","LB","GLPX1-102-077","19","HBA1C","Hemoglobin A1C","8","%","8",8.0,"%",4.0,5.6,4.0,5.6,"HIGH",null,null,"5","WEEK 12","2024-07-28","86"],["GLPX1","LB","GLPX1-102-077","20","GLUC","Glucose","8","mmol/L","8",8.0,"mmol/L",3.9,5.6,3.9,5.6,"HIGH",null,null,"5","WEEK 12","2024-07-30","88"],["GLPX1","LB","GLPX1-102-077","21","HBA1C","Hemoglobin A1C","7.9","%","7.9",7.9,"%",4.0,5.6,4.0,5.6,"HIGH",null,null,"6","WEEK 16","2024-08-23","112"],["GLPX1","LB","GLPX1-102-077","22","ALT","Alanine Aminotransferase","26","U/L","26",26.0,"U/L",10.0,40.0,10.0,40.0,"NORMAL",null,null,"6","WEEK 16","2024-08-25","114"],["GLPX1","LB","GLPX1-102-077","23","CREAT","Creatinine","89","umol/L","89",89.0,"umol/L",62.0,106.0,62.0,106.0,"NORMAL",null,null,"6","WEEK 16","2024-08-25","114"],["GLPX1","LB","GLPX1-102-077","24","GLUC","Glucose","8.4","mmol/L","8.4",8.4,"mmol/L",3.9,5.6,3.9,5.6,"HIGH",null,null,"6","WEEK 16","2024-08-26","115"],["GLPX1","LB","GLPX1-102-077","25","HBA1C","Hemoglobin A1C","7.4","%","7.4",7.4,"%",4.0,5.6,4.0,5.6,"HIGH",null,null,"7","WEEK 20","2024-09-20","140"],["GLPX1","LB","GLPX1-102-077","26","GLUC","Glucose","8.9","mmol/L","8.9",8.9,"mmol/L",3.9,5.6,3.9,5.6,"HIGH",null,null,"7","WEEK 20","2024-09-21","141"],["GLPX1","LB","GLPX1-102-077","27","ALT","Alanine Aminotransferase","31","U/L","31",31.0,"U/L",10.0,40.0,10.0,40.0,"NORMAL",null,null,"7","WEEK 20","2024-09-23","143"],["GLPX1","LB","GLPX1-102-077","28","CREAT","Creatinine","94","umol/L","94",94.0,"umol/L",62.0,106.0,62.0,106.0,"NORMAL",null,null,"7","WEEK 20","2024-09-23","143"],["GLPX1","LB","GLPX1-102-077","29","ALT","Alanine Aminotransferase","46","U/L","46",46.0,"U/L",10.0,40.0,10.0,40.0,"HIGH",null,null,"8","WEEK 26","2024-11-01","182"],["GLPX1","LB","GLPX1-102-077","30","CREAT","Creatinine","70","umol/L","70",70.0,"umol/L",62.0,106.0,62.0,106.0,"NORMAL",null,null,"8","WEEK 26","2024-11-01","182"],["GLPX1","LB","GLPX1-102-077","31","HBA1C","Hemoglobin A1C","7.6","%","7.6",7.6,"%",4.0,5.6,4.0,5.6,"HIGH",null,null,"8","WEEK 26","2024-11-01","182"],["GLPX1","LB","GLPX1-102-077","32","GLUC","Glucose","7.1","mmol/L","7.1",7.1,"mmol/L",3.9,5.6,3.9,5.6,"HIGH",null,null,"8","WEEK 26","2024-11-02","183"],["GLPX1","LB","GLPX1-102-099","1","GLUC","Glucose","9.8","mmol/L","9.8",9.8,"mmol/L",3.9,5.6,3.9,5.6,"HIGH",null,"Y","1","SCREENING","2024-04-05","-16"],["GLPX1","LB","GLPX1-102-099","2","HBA1C","Hemoglobin A1C","6.9","%","6.9",6.9,"%",4.0,5.6,4.0,5.6,"HIGH",null,"Y","1","SCREENING","2024-04-06","-15"],["GLPX1","LB","GLPX1-102-099","3","ALT","Alanine Aminotransferase","26","U/L","26",26.0,"U/L",7.0,35.0,7.0,35.0,"NORMAL",null,"Y","1","SCREENING","2024-04-07","-14"],["GLPX1","LB","GLPX1-102-099","4","CREAT","Creatinine","64","umol/L","64",64.0,"umol/L",44.0,80.0,44.0,80.0,"NORMAL",null,"Y","1","SCREENING","2024-04-08","-13"],["GLPX1","LB","GLPX1-102-099","5","GLUC","Glucose","8","mmol/L","8",8.0,"mmol/L",3.9,5.6,3.9,5.6,"HIGH",null,null,"2","BASELINE","2024-04-21","1"],["GLPX1","LB","GLPX1-102-099","6","HBA1C","Hemoglobin A1C","7","%","7",7.0,"%",4.0,5.6,4.0,5.6,"HIGH",null,null,"2","BASELINE","2024-04-22","2"],["GLPX1","LB","GLPX1-102-099","7","ALT","Alanine Aminotransferase","31","U/L","31",31.0,"U/L",7.0,35.0,7.0,35.0,"NORMAL",null,null,"2","BASELINE","2024-04-23","3"],["GLPX1","LB","GLPX1-102-099","8","CREAT","Creatinine","74","umol/L","74",74.0,"umol/L",44.0,80.0,44.0,80.0,"NORMAL",null,null,"2","BASELINE","2024-04-24","4"],["GLPX1","LB","GLPX1-102-099","9","CREAT","Creatinine","59","umol/L","59",59.0,"umol/L",44.0,80.0,44.0,80.0,"NORMAL",null,null,"3","WEEK 4","2024-05-19","29"],["GLPX1","LB","GLPX1-102-099","10","ALT","Alanine Aminotransferase","18","U/L","18",18.0,"U/L",7.0,35.0,7.0,35.0,"NORMAL",null,null,"3","WEEK 4","2024-05-20","30"],["GLPX1","LB","GLPX1-102-099","11","GLUC","Glucose","10.5","mmol/L","10.5",10.5,"mmol/L",3.9,5.6,3.9,5.6,"HIGH",null,null,"3","WEEK 4","2024-05-22","32"],["GLPX1","LB","GLPX1-102-099","12","HBA1C","Hemoglobin A1C","6.7","%","6.7",6.7,"%",4.0,5.6,4.0,5.6,"HIGH",null,null,"3","WEEK 4","2024-05-22","32"],["GLPX1","LB","GLPX1-102-099","13","ALT","Alanine Aminotransferase","15","U/L","15",15.0,"U/L",7.0,35.0,7.0,35.0,"NORMAL",null,null,"4","WEEK 8","2024-06-15","56"],["GLPX1","LB","GLPX1-102-099","14","GLUC","Glucose","9.3","mmol/L","9.3",9.3,"mmol/L",3.9,5.6,3.9,5.6,"HIGH",null,null,"4","WEEK 8","2024-06-15","56"],["GLPX1","LB","GLPX1-102-099","15","HBA1C","Hemoglobin A1C","6.5","%","6.5",6.5,"%",4.0,5.6,4.0,5.6,"HIGH",null,null,"4","WEEK 8","2024-06-15","56"],["GLPX1","LB","GLPX1-102-099","16","CREAT","Creatinine","88","umol/L","88",88.0,"umol/L",44.0,80.0,44.0,80.0,"HIGH",null,null,"4","WEEK 8","2024-06-16","57"],["GLPX1","LB","GLPX1-102-099","17","GLUC","Glucose","10","mmol/L","10",10.0,"mmol/L",3.9,5.6,3.9,5.6,"HIGH",null,null,"5","WEEK 12","2024-07-14","85"],["GLPX1","LB","GLPX1-102-099","18","ALT","Alanine Aminotransferase","23","U/L","23",23.0,"U/L",7.0,35.0,7.0,35.0,"NORMAL",null,null,"5","WEEK 12","2024-07-15","86"],["GLPX1","LB","GLPX1-102-099","19","HBA1C","Hemoglobin A1C","6","%","6",6.0,"%",4.0,5.6,4.0,5.6,"HIGH",null,null,"5","WEEK 12","2024-07-15","86"],["GLPX1","LB","GLPX1-102-099","20","CREAT","Creatinine","64","umol/L","64",64.0,"umol/L",44.0,80.0,44.0,80.0,"NORMAL",null,null,"5","WEEK 12","2024-07-17","88"],["GLPX1","LB","GLPX1-102-099","21","GLUC","Glucose","8.1","mmol/L","8.1",8.1,"mmol/L",3.9,5.6,3.9,5.6,"HIGH",null,null,"6","WEEK 16","2024-08-12","114"],["GLPX1","LB","GLPX1-102-099","22","CREAT","Creatinine","61","umol/L","61",61.0,"umol/L",44.0,80.0,44.0,80.0,"NORMAL",null,null,"6","WEEK 16","2024-08-13","115"],["GLPX1","LB","GLPX1-102-099","23","ALT","Alanine Aminotransferase","33","U/L","33",33.0,"U/L",7.0,35.0,7.0,35.0,"NORMAL",null,null,"6","WEEK 16","2024-08-14","116"],["GLPX1","LB","GLPX1-102-099","24","HBA1C","Hemoglobin A1C","6.3","%","6.3",6.3,"%",4.0,5.6,4.0,5.6,"HIGH",null,null,"6","WEEK 16","2024-08-14","116"],["GLPX1","LB","GLPX1-102-099","25","HBA1C","Hemoglobin A1C","6","%","6",6.0,"%",4.0,5.6,4.0,5.6,"HIGH",null,null,"7","WEEK 20","2024-09-08","141"],["GLPX1","LB","GLPX1-102-099","26","GLUC","Glucose","8.4","mmol/L","8.4",8.4,"mmol/L",3.9,5.6,3.9,5.6,"HIGH",null,null,"7","WEEK 20","2024-09-09","142"],["GLPX1","LB","GLPX1-102-099","27","ALT","Alanine Aminotransferase","19","U/L","19",19.0,"U/L",7.0,35.0,7.0,35.0,"NORMAL",null,null,"7","WEEK 20","2024-09-11","144"],["GLPX1","LB","GLPX1-102-099","28","CREAT","Creatinine","57","umol/L","57",57.0,"umol/L",44.0,80.0,44.0,80.0,"NORMAL",null,null,"7","WEEK 20","2024-09-11","144"],["GLPX1","LB","GLPX1-102-099","29","HBA1C","Hemoglobin A1C","5.7","%","5.7",5.7,"%",4.0,5.6,4.0,5.6,"HIGH",null,null,"8","WEEK 26","2024-10-19","182"],["GLPX1","LB","GLPX1-102-099","30","ALT","Alanine Aminotransferase","20","U/L","20",20.0,"U/L",7.0,35.0,7.0,35.0,"NORMAL",null,null,"8","WEEK 26","2024-10-20","183"],["GLPX1","LB","GLPX1-102-099","31","GLUC","Glucose","7.7","mmol/L","7.7",7.7,"mmol/L",3.9,5.6,3.9,5.6,"HIGH",null,null,"8","WEEK 26","2024-10-21","184"],["GLPX1","LB","GLPX1-102-099","32","CREAT","Creatinine","60","umol/L","60",60.0,"umol/L",44.0,80.0,44.0,80.0,"NORMAL",null,null,"8","WEEK 26","2024-10-22","185"],["GLPX1","LB","GLPX1-102-105","1","CREAT","Creatinine","91","umol/L","91",91.0,"umol/L",62.0,106.0,62.0,106.0,"NORMAL",null,"Y","1","SCREENING","2024-06-14","-14"],["GLPX1","LB","GLPX1-102-105","2","GLUC","Glucose","10.6","mmol/L","10.6",10.6,"mmol/L",3.9,5.6,3.9,5.6,"HIGH",null,"Y","1","SCREENING","2024-06-14","-14"],["GLPX1","LB","GLPX1-102-105","3","ALT","Alanine Aminotransferase","28","U/L","28",28.0,"U/L",10.0,40.0,10.0,40.0,"NORMAL",null,null,"1","SCREENING","2024-06-16","-12"],["GLPX1","LB","GLPX1-102-105","4","HBA1C","Hemoglobin A1C","7.9","%","7.9",7.9,"%",4.0,5.6,4.0,5.6,"HIGH",null,"Y","1","SCREENING","2024-06-16","-12"],["GLPX1","LB","GLPX1-102-105","5","ALT","Alanine Aminotransferase","43","U/L","43",43.0,"U/L",10.0,40.0,10.0,40.0,"HIGH",null,"Y","2","BASELINE","2024-06-27","-1"],["GLPX1","LB","GLPX1-102-105","6","HBA1C","Hemoglobin A1C","8","%","8",8.0,"%",4.0,5.6,4.0,5.6,"HIGH",null,null,"2","BASELINE","2024-06-29","2"],["GLPX1","LB","GLPX1-102-105","7","CREAT","Creatinine","96","umol/L","96",96.0,"umol/L",62.0,106.0,62.0,106.0,"NORMAL",null,null,"2","BASELINE","2024-06-30","3"],["GLPX1","LB","GLPX1-102-105","8","GLUC","Glucose","8","mmol/L","8",8.0,"mmol/L",3.9,5.6,3.9,5.6,"HIGH",null,null,"2","BASELINE","2024-06-30","3"],["GLPX1","LB","GLPX1-102-105","9","GLUC","Glucose","10.1","mmol/L","10.1",10.1,"mmol/L",3.9,5.6,3.9,5.6,"HIGH",null,null,"3","WEEK 4","2024-07-25","28"],["GLPX1","LB","GLPX1-102-105","10","HBA1C","Hemoglobin A1C","7.6","%","7.6",7.6,"%",4.0,5.6,4.0,5.6,"HIGH",null,null,"3","WEEK 4","2024-07-26","29"],["GLPX1","LB","GLPX1-102-105","11","ALT","Alanine Aminotransferase","24","U/L","24",24.0,"U/L",10.0,40.0,10.0,40.0,"NORMAL",null,null,"3","WEEK 4","2024-07-27","30"],["GLPX1","LB","GLPX1-102-105","12","CREAT","Creatinine","71","umol/L","71",71.0,"umol/L",62.0,106.0,62.0,106.0,"NORMAL",null,null,"3","WEEK 4","2024-07-29","32"],["GLPX1","LB","GLPX1-102-105","13","GLUC","Glucose","10.8","mmol/L","10.8",10.8,"mmol/L",3.9,5.6,3.9,5.6,"HIGH",null,null,"4","WEEK 8","2024-08-23","57"],["GLPX1","LB","GLPX1-102-105","14","HBA1C","Hemoglobin A1C","7.8","%","7.8",7.8,"%",4.0,5.6,4.0,5.6,"HIGH",null,null,"4","WEEK 8","2024-08-24","58"],["GLPX1","LB","GLPX1-102-105","15","ALT","Alanine Aminotransferase","24","U/L","24",24.0,"U/L",10.0,40.0,10.0,40.0,"NORMAL",null,null,"4","WEEK 8","2024-08-26","60"],["GLPX1","LB","GLPX1-102-105","16","CREAT","Creatinine","83","umol/L","83",83.0,"umol/L",62.0,106.0,62.0,106.0,"NORMAL",null,null,"4","WEEK 8","2024-08-26","60"],["GLPX1","LB","GLPX1-102-105","17","ALT","Alanine Aminotransferase","27","U/L","27",27.0,"U/L",10.0,40.0,10.0,40.0,"NORMAL",null,null,"5","WEEK 12","2024-09-19","84"],["GLPX1","LB","GLPX1-102-105","18","HBA1C","Hemoglobin A1C","7.7","%","7.7",7.7,"%",4.0,5.6,4.0,5.6,"HIGH",null,null,"5","WEEK 12","2024-09-21","86"],["GLPX1","LB","GLPX1-102-105","19","GLUC","Glucose","7.7","mmol/L","7.7",7.7,"mmol/L",3.9,5.6,3.9,5.6,"HIGH",null,null,"5","WEEK 12","2024-09-22","87"],["GLPX1","LB","GLPX1-102-105","20","CREAT","Creatinine","60","umol/L","60",60.0,"umol/L",62.0,106.0,62.0,106.0,"LOW",null,null,"5","WEEK 12","2024-09-23","88"],["GLPX1","LB","GLPX1-102-105","21","HBA1C","Hemoglobin A1C","8","%","8",8.0,"%",4.0,5.6,4.0,5.6,"HIGH",null,null,"6","WEEK 16","2024-10-17","112"],["GLPX1","LB","GLPX1-102-105","22","GLUC","Glucose","8.6","mmol/L","8.6",8.6,"mmol/L",3.9,5.6,3.9,5.6,"HIGH",null,null,"6","WEEK 16","2024-10-18","113"],["GLPX1","LB","GLPX1-102-105","23","ALT","Alanine Aminotransferase","43","U/L","43",43.0,"U/L",10.0,40.0,10.0,40.0,"HIGH",null,null,"6","WEEK 16","2024-10-19","114"],["GLPX1","LB","GLPX1-102-105","24","CREAT","Creatinine","76","umol/L","76",76.0,"umol/L",62.0,106.0,62.0,106.0,"NORMAL",null,null,"6","WEEK 16","2024-10-20","115"],["GLPX1","LB","GLPX1-102-105","25","GLUC","Glucose","9.8","mmol/L","9.8",9.8,"mmol/L",3.9,5.6,3.9,5.6,"HIGH",null,null,"7","WEEK 20","2024-11-16","142"],["GLPX1","LB","GLPX1-102-105","26","HBA1C","Hemoglobin A1C","7.4","%","7.4",7.4,"%",4.0,5.6,4.0,5.6,"HIGH",null,null,"7","WEEK 20","2024-11-16","142"],["GLPX1","LB","GLPX1-102-105","27","ALT","Alanine Aminotransferase","16","U/L","16",16.0,"U/L",10.0,40.0,10.0,40.0,"NORMAL",null,null,"7","WEEK 20","2024-11-17","143"],["GLPX1","LB","GLPX1-102-105","28","CREAT","Creatinine","89","umol/L","89",89.0,"umol/L",62.0,106.0,62.0,106.0,"NORMAL",null,null,"7","WEEK 20","2024-11-18","144"],["GLPX1","LB","GLPX1-102-120","1","CREAT","Creatinine","76","umol/L","76",76.0,"umol/L",62.0,106.0,62.0,106.0,"NORMAL",null,"Y","1","SCREENING","2024-01-29","-16"],["GLPX1","LB","GLPX1-102-120","2","GLUC","Glucose","9.2","mmol/L","9.2",9.2,"mmol/L",3.9,5.6,3.9,5.6,"HIGH",null,"Y","1","SCREENING","2024-01-31","-14"],["GLPX1","LB","GLPX1-102-120","3","HBA1C","Hemoglobin A1C","8.1","%","8.1",8.1,"%",4.0,5.6,4.0,5.6,"HIGH",null,"Y","1","SCREENING","2024-01-31","-14"],["GLPX1","LB","GLPX1-102-120","4","ALT","Alanine Aminotransferase","32","U/L","32",32.0,"U/L",10.0,40.0,10.0,40.0,"NORMAL",null,"Y","1","SCREENING","2024-02-02","-12"],["GLPX1","LB","GLPX1-102-120","5","ALT","Alanine Aminotransferase","21","U/L","21",21.0,"U/L",10.0,40.0,10.0,40.0,"NORMAL",null,null,"2","BASELINE","2024-02-16","3"],["GLPX1","LB","GLPX1-102-120","6","CREAT","Creatinine","78","umol/L","78",78.0,"umol/L",62.0,106.0,62.0,106.0,"NORMAL",null,null,"2","BASELINE","2024-02-17","4"],["GLPX1","LB","GLPX1-102-120","7","GLUC","Glucose","7.6","mmol/L","7.6",7.6,"mmol/L",3.9,5.6,3.9,5.6,"HIGH",null,null,"2","BASELINE","2024-02-17","4"],["GLPX1","LB","GLPX1-102-120","8","HBA1C","Hemoglobin A1C","8.4","%","8.4",8.4,"%",4.0,5.6,4.0,5.6,"HIGH",null,null,"2","BASELINE","2024-02-17","4"],["GLPX1","LB","GLPX1-102-120","9","ALT","Alanine Aminotransferase","19","U/L","19",19.0,"U/L",10.0,40.0,10.0,40.0,"NORMAL",null,null,"3","WEEK 4","2024-03-12","28"],["GLPX1","LB","GLPX1-102-120","10","CREAT","Creatinine","63","umol/L","63",63.0,"umol/L",62.0,106.0,62.0,106.0,"NORMAL",null,null,"3","WEEK 4","2024-03-12","28"],["GLPX1","LB","GLPX1-102-120","11","HBA1C","Hemoglobin A1C","8.5","%","8.5",8.5,"%",4.0,5.6,4.0,5.6,"HIGH",null,null,"3","WEEK 4","2024-03-14","30"],["GLPX1","LB","GLPX1-102-120","12","GLUC","Glucose","10.7","mmol/L","10.7",10.7,"mmol/L",3.9,5.6,3.9,5.6,"HIGH",null,null,"3","WEEK 4","2024-03-16","32"],["GLPX1","LB","GLPX1-102-120","13","ALT","Alanine Aminotransferase","20","U/L","20",20.0,"U/L",10.0,40.0,10.0,40.0,"NORMAL",null,null,"4","WEEK 8","2024-04-09","56"],["GLPX1","LB","GLPX1-102-120","14","HBA1C","Hemoglobin A1C","8.2","%","8.2",8.2,"%",4.0,5.6,4.0,5.6,"HIGH",null,null,"4","WEEK 8","2024-04-09","56"],["GLPX1","LB","GLPX1-102-120","15","GLUC","Glucose","10.2","mmol/L","10.2",10.2,"mmol/L",3.9,5.6,3.9,5.6,"HIGH",null,null,"4","WEEK 8","2024-04-10","57"],["GLPX1","LB","GLPX1-102-120","16","CREAT","Creatinine","83","umol/L","83",83.0,"umol/L",62.0,106.0,62.0,106.0,"NORMAL",null,null,"4","WEEK 8","2024-04-13","60"],["GLPX1","LB","GLPX1-102-120","17","GLUC","Glucose","10.9","mmol/L","10.9",10.9,"mmol/L",3.9,5.6,3.9,5.6,"HIGH",null,null,"5","WEEK 12","2024-05-07","84"],["GLPX1","LB","GLPX1-102-120","18","ALT","Alanine Aminotransferase","26","U/L","26",26.0,"U/L",10.0,40.0,10.0,40.0,"NORMAL",null,null,"5","WEEK 12","2024-05-08","85"],["GLPX1","LB","GLPX1-102-120","19","CREAT","Creatinine","88","umol/L","88",88.0,"umol/L",62.0,106.0,62.0,106.0,"NORMAL",null,null,"5","WEEK 12","2024-05-09","86"],["GLPX1","LB","GLPX1-102-120","20","HBA1C","Hemoglobin A1C","8.2","%","8.2",8.2,"%",4.0,5.6,4.0,5.6,"HIGH",null,null,"5","WEEK 12","2024-05-09","86"],["GLPX1","LB","GLPX1-102-120","21","ALT","Alanine Aminotransferase","18","U/L","18",18.0,"U/L",10.0,40.0,10.0,40.0,"NORMAL",null,null,"6","WEEK 16","2024-06-05","113"],["GLPX1","LB","GLPX1-102-120","22","GLUC","Glucose","6.8","mmol/L","6.8",6.8,"mmol/L",3.9,5.6,3.9,5.6,"HIGH",null,null,"6","WEEK 16","2024-06-06","114"],["GLPX1","LB","GLPX1-102-120","23","CREAT","Creatinine","78","umol/L","78",78.0,"umol/L",62.0,106.0,62.0,106.0,"NORMAL",null,null,"6","WEEK 16","2024-06-07","115"],["GLPX1","LB","GLPX1-102-120","24","HBA1C","Hemoglobin A1C","8.5","%","8.5",8.5,"%",4.0,5.6,4.0,5.6,"HIGH",null,null,"6","WEEK 16","2024-06-08","116"],["GLPX1","LB","GLPX1-102-120","25","ALT","Alanine Aminotransferase","34","U/L","34",34.0,"U/L",10.0,40.0,10.0,40.0,"NORMAL",null,null,"7","WEEK 20","2024-07-02","140"],["GLPX1","LB","GLPX1-102-120","26","GLUC","Glucose","9.9","mmol/L","9.9",9.9,"mmol/L",3.9,5.6,3.9,5.6,"HIGH",null,null,"7","WEEK 20","2024-07-03","141"],["GLPX1","LB","GLPX1-102-120","27","CREAT","Creatinine","81","umol/L","81",81.0,"umol/L",62.0,106.0,62.0,106.0,"NORMAL",null,null,"7","WEEK 20","2024-07-04","142"],["GLPX1","LB","GLPX1-102-120","28","HBA1C","Hemoglobin A1C","8.5","%","8.5",8.5,"%",4.0,5.6,4.0,5.6,"HIGH",null,null,"7","WEEK 20","2024-07-05","143"],["GLPX1","LB","GLPX1-102-120","29","GLUC","Glucose","9.4","mmol/L","9.4",9.4,"mmol/L",3.9,5.6,3.9,5.6,"HIGH",null,null,"8","WEEK 26","2024-08-13","182"],["GLPX1","LB","GLPX1-102-120","30","ALT","Alanine Aminotransferase","21","U/L","21",21.0,"U/L",10.0,40.0,10.0,40.0,"NORMAL",null,null,"8","WEEK 26","2024-08-15","184"],["GLPX1","LB","GLPX1-102-120","31","HBA1C","Hemoglobin A1C","8","%","8",8.0,"%",4.0,5.6,4.0,5.6,"HIGH",null,null,"8","WEEK 26","2024-08-15","184"],["GLPX1","LB","GLPX1-102-120","32","CREAT","Creatinine","74","umol/L","74",74.0,"umol/L",62.0,106.0,62.0,106.0,"NORMAL",null,null,"8","WEEK 26","2024-08-16","185"],["GLPX1","LB","GLPX1-102-132","1","CREAT","Creatinine","75","umol/L","75",75.0,"umol/L",44.0,80.0,44.0,80.0,"NORMAL",null,"Y","1","SCREENING","2024-05-29","-14"],["GLPX1","LB","GLPX1-102-132","2","ALT","Alanine Aminotransferase","17","U/L","17",17.0,"U/L",7.0,35.0,7.0,35.0,"NORMAL",null,"Y","1","SCREENING","2024-05-30","-13"],["GLPX1","LB","GLPX1-102-132","3","GLUC","Glucose","11","mmol/L","11",11.0,"mmol/L",3.9,5.6,3.9,5.6,"HIGH",null,"Y","1","SCREENING","2024-05-30","-13"],["GLPX1","LB","GLPX1-102-132","4","HBA1C","Hemoglobin A1C","9.1","%","9.1",9.1,"%",4.0,5.6,4.0,5.6,"HIGH",null,"Y","1","SCREENING","2024-05-31","-12"],["GLPX1","LB","GLPX1-102-132","5","GLUC","Glucose","8.6","mmol/L","8.6",8.6,"mmol/L",3.9,5.6,3.9,5.6,"HIGH",null,null,"2","BASELINE","2024-06-13","2"],["GLPX1","LB","GLPX1-102-132","6","ALT","Alanine Aminotransferase","22","U/L","22",22.0,"U/L",7.0,35.0,7.0,35.0,"NORMAL",null,null,"2","BASELINE","2024-06-14","3"],["GLPX1","LB","GLPX1-102-132","7","CREAT","Creatinine","64","umol/L","64",64.0,"umol/L",44.0,80.0,44.0,80.0,"NORMAL",null,null,"2","BASELINE","2024-06-15","4"],["GLPX1","LB","GLPX1-102-132","8","HBA1C","Hemoglobin A1C","9","%","9",9.0,"%",4.0,5.6,4.0,5.6,"HIGH",null,null,"2","BASELINE","2024-06-15","4"],["GLPX1","LB","GLPX1-102-132","9","HBA1C","Hemoglobin A1C","8.9","%","8.9",8.9,"%",4.0,5.6,4.0,5.6,"HIGH",null,null,"3","WEEK 4","2024-07-09","28"],["GLPX1","LB","GLPX1-102-132","10","GLUC","Glucose","9.3","mmol/L","9.3",9.3,"mmol/L",3.9,5.6,3.9,5.6,"HIGH",null,null,"3","WEEK 4","2024-07-12","31"],["GLPX1","LB","GLPX1-102-132","11","ALT","Alanine Aminotransferase","35","U/L","35",35.0,"U/L",7.0,35.0,7.0,35.0,"NORMAL",null,null,"3","WEEK 4","2024-07-13","32"],["GLPX1","LB","GLPX1-102-132","12","CREAT","Creatinine","64","umol/L","64",64.0,"umol/L",44.0,80.0,44.0,80.0,"NORMAL",null,null,"3","WEEK 4","2024-07-13","32"],["GLPX1","LB","GLPX1-102-132","13","CREAT","Creatinine","53","umol/L","53",53.0,"umol/L",44.0,80.0,44.0,80.0,"NORMAL",null,null,"4","WEEK 8","2024-08-06","56"],["GLPX1","LB","GLPX1-102-132","14","ALT","Alanine Aminotransferase","29","U/L","29",29.0,"U/L",7.0,35.0,7.0,35.0,"NORMAL",null,null,"4","WEEK 8","2024-08-07","57"],["GLPX1","LB","GLPX1-102-132","15","GLUC","Glucose","11","mmol/L","11",11.0,"mmol/L",3.9,5.6,3.9,5.6,"HIGH",null,null,"4","WEEK 8","2024-08-08","58"],["GLPX1","LB","GLPX1-102-132","16","HBA1C","Hemoglobin A1C","8.9","%","8.9",8.9,"%",4.0,5.6,4.0,5.6,"HIGH",null,null,"4","WEEK 8","2024-08-09","59"],["GLPX1","LB","GLPX1-102-132","17","HBA1C","Hemoglobin A1C","8.4","%","8.4",8.4,"%",4.0,5.6,4.0,5.6,"HIGH",null,null,"5","WEEK 12","2024-09-04","85"],["GLPX1","LB","GLPX1-102-132","18","ALT","Alanine Aminotransferase","25","U/L","25",25.0,"U/L",7.0,35.0,7.0,35.0,"NORMAL",null,null,"5","WEEK 12","2024-09-05","86"],["GLPX1","LB","GLPX1-102-132","19","CREAT","Creatinine","62","umol/L","62",62.0,"umol/L",44.0,80.0,44.0,80.0,"NORMAL",null,null,"5","WEEK 12","2024-09-06","87"],["GLPX1","LB","GLPX1-102-132","20","GLUC","Glucose","7.4","mmol/L","7.4",7.4,"mmol/L",3.9,5.6,3.9,5.6,"HIGH",null,null,"5","WEEK 12","2024-09-07","88"],["GLPX1","LB","GLPX1-102-132","21","CREAT","Creatinine","63","umol/L","63",63.0,"umol/L",44.0,80.0,44.0,80.0,"NORMAL",null,null,"6","WEEK 16","2024-10-02","113"],["GLPX1","LB","GLPX1-102-132","22","GLUC","Glucose","7.5","mmol/L","7.5",7.5,"mmol/L",3.9,5.6,3.9,5.6,"HIGH",null,null,"6","WEEK 16","2024-10-02","113"],["GLPX1","LB","GLPX1-102-132","23","ALT","Alanine Aminotransferase","28","U/L","28",28.0,"U/L",7.0,35.0,7.0,35.0,"NORMAL",null,null,"6","WEEK 16","2024-10-04","115"],["GLPX1","LB","GLPX1-102-132","24","HBA1C","Hemoglobin A1C","8","%","8",8.0,"%",4.0,5.6,4.0,5.6,"HIGH",null,null,"6","WEEK 16","2024-10-04","115"],["GLPX1","LB","GLPX1-102-132","25","CREAT","Creatinine","77","umol/L","77",77.0,"umol/L",44.0,80.0,44.0,80.0,"NORMAL",null,null,"7","WEEK 20","2024-10-30","141"],["GLPX1","LB","GLPX1-102-132","26","GLUC","Glucose","11.4","mmol/L","11.4",11.4,"mmol/L",3.9,5.6,3.9,5.6,"HIGH",null,null,"7","WEEK 20","2024-10-30","141"],["GLPX1","LB","GLPX1-102-132","27","ALT","Alanine Aminotransferase","21","U/L","21",21.0,"U/L",7.0,35.0,7.0,35.0,"NORMAL",null,null,"7","WEEK 20","2024-11-02","144"],["GLPX1","LB","GLPX1-102-132","28","HBA1C","Hemoglobin A1C","8","%","8",8.0,"%",4.0,5.6,4.0,5.6,"HIGH",null,null,"7","WEEK 20","2024-11-02","144"],["GLPX1","LB","GLPX1-102-132","29","GLUC","Glucose","6.4","mmol/L","6.4",6.4,"mmol/L",3.9,5.6,3.9,5.6,"HIGH",null,null,"8","WEEK 26","2024-12-10","182"],["GLPX1","LB","GLPX1-102-132","30","HBA1C","Hemoglobin A1C","8.2","%","8.2",8.2,"%",4.0,5.6,4.0,5.6,"HIGH",null,null,"8","WEEK 26","2024-12-10","182"],["GLPX1","LB","GLPX1-102-132","31","CREAT","Creatinine","63","umol/L","63",63.0,"umol/L",44.0,80.0,44.0,80.0,"NORMAL",null,null,"8","WEEK 26","2024-12-12","184"],["GLPX1","LB","GLPX1-102-132","32","ALT","Alanine Aminotransferase","19","U/L","19",19.0,"U/L",7.0,35.0,7.0,35.0,"NORMAL",null,null,"8","WEEK 26","2024-12-13","185"],["GLPX1","LB","GLPX1-102-133","1","GLUC","Glucose","10.4","mmol/L","10.4",10.4,"mmol/L",3.9,5.6,3.9,5.6,"HIGH",null,"Y","1","SCREENING","2024-06-04","-15"],["GLPX1","LB","GLPX1-102-133","2","CREAT","Creatinine","81","umol/L","81",81.0,"umol/L",62.0,106.0,62.0,106.0,"NORMAL",null,null,"1","SCREENING","2024-06-06","-13"],["GLPX1","LB","GLPX1-102-133","3","HBA1C","Hemoglobin A1C","9.5","%","9.5",9.5,"%",4.0,5.6,4.0,5.6,"HIGH",null,"Y","1","SCREENING","2024-06-06","-13"],["GLPX1","LB","GLPX1-102-133","4","ALT","Alanine Aminotransferase","13","U/L","13",13.0,"U/L",10.0,40.0,10.0,40.0,"NORMAL",null,"Y","1","SCREENING","2024-06-07","-12"],["GLPX1","LB","GLPX1-102-133","5","CREAT","Creatinine","76","umol/L","76",76.0,"umol/L",62.0,106.0,62.0,106.0,"NORMAL",null,"Y","2","BASELINE","2024-06-18","-1"],["GLPX1","LB","GLPX1-102-133","6","ALT","Alanine Aminotransferase","32","U/L","32",32.0,"U/L",10.0,40.0,10.0,40.0,"NORMAL",null,null,"2","BASELINE","2024-06-19","1"],["GLPX1","LB","GLPX1-102-133","7","HBA1C","Hemoglobin A1C","9","%","9",9.0,"%",4.0,5.6,4.0,5.6,"HIGH",null,null,"2","BASELINE","2024-06-19","1"],["GLPX1","LB","GLPX1-102-133","8","GLUC","Glucose","12.4","mmol/L","12.4",12.4,"mmol/L",3.9,5.6,3.9,5.6,"HIGH",null,null,"2","BASELINE","2024-06-22","4"],["GLPX1","LB","GLPX1-102-133","9","HBA1C","Hemoglobin A1C","8.8","%","8.8",8.8,"%",4.0,5.6,4.0,5.6,"HIGH",null,null,"3","WEEK 4","2024-07-16","28"],["GLPX1","LB","GLPX1-102-133","10","GLUC","Glucose","9.2","mmol/L","9.2",9.2,"mmol/L",3.9,5.6,3.9,5.6,"HIGH",null,null,"3","WEEK 4","2024-07-17","29"],["GLPX1","LB","GLPX1-102-133","11","CREAT","Creatinine","78","umol/L","78",78.0,"umol/L",62.0,106.0,62.0,106.0,"NORMAL",null,null,"3","WEEK 4","2024-07-18","30"],["GLPX1","LB","GLPX1-102-133","12","ALT","Alanine Aminotransferase","22","U/L","22",22.0,"U/L",10.0,40.0,10.0,40.0,"NORMAL",null,null,"3","WEEK 4","2024-07-19","31"],["GLPX1","LB","GLPX1-102-133","13","ALT","Alanine Aminotransferase","30","U/L","30",30.0,"U/L",10.0,40.0,10.0,40.0,"NORMAL",null,null,"4","WEEK 8","2024-08-14","57"],["GLPX1","LB","GLPX1-102-133","14","GLUC","Glucose","8.1","mmol/L","8.1",8.1,"mmol/L",3.9,5.6,3.9,5.6,"HIGH",null,null,"4","WEEK 8","2024-08-15","58"],["GLPX1","LB","GLPX1-102-133","15","HBA1C","Hemoglobin A1C","8.7","%","8.7",8.7,"%",4.0,5.6,4.0,5.6,"HIGH",null,null,"4","WEEK 8","2024-08-15","58"],["GLPX1","LB","GLPX1-102-133","16","CREAT","Creatinine","92","umol/L","92",92.0,"umol/L",62.0,106.0,62.0,106.0,"NORMAL",null,null,"4","WEEK 8","2024-08-16","59"],["GLPX1","LB","GLPX1-102-133","17","ALT","Alanine Aminotransferase","31","U/L","31",31.0,"U/L",10.0,40.0,10.0,40.0,"NORMAL",null,null,"5","WEEK 12","2024-09-13","87"],["GLPX1","LB","GLPX1-102-133","18","CREAT","Creatinine","79","umol/L","79",79.0,"umol/L",62.0,106.0,62.0,106.0,"NORMAL",null,null,"5","WEEK 12","2024-09-13","87"],["GLPX1","LB","GLPX1-102-133","19","GLUC","Glucose","8.7","mmol/L","8.7",8.7,"mmol/L",3.9,5.6,3.9,5.6,"HIGH",null,null,"5","WEEK 12","2024-09-14","88"],["GLPX1","LB","GLPX1-102-133","20","HBA1C","Hemoglobin A1C","8.2","%","8.2",8.2,"%",4.0,5.6,4.0,5.6,"HIGH",null,null,"5","WEEK 12","2024-09-14","88"],["GLPX1","LB","GLPX1-102-133","21","CREAT","Creatinine","76","umol/L","76",76.0,"umol/L",62.0,106.0,62.0,106.0,"NORMAL",null,null,"6","WEEK 16","2024-10-09","113"],["GLPX1","LB","GLPX1-102-133","22","HBA1C","Hemoglobin A1C","7.6","%","7.6",7.6,"%",4.0,5.6,4.0,5.6,"HIGH",null,null,"6","WEEK 16","2024-10-09","113"],["GLPX1","LB","GLPX1-102-133","23","GLUC","Glucose","10.1","mmol/L","10.1",10.1,"mmol/L",3.9,5.6,3.9,5.6,"HIGH",null,null,"6","WEEK 16","2024-10-10","114"],["GLPX1","LB","GLPX1-102-133","24","ALT","Alanine Aminotransferase","26","U/L","26",26.0,"U/L",10.0,40.0,10.0,40.0,"NORMAL",null,null,"6","WEEK 16","2024-10-11","115"],["GLPX1","LB","GLPX1-102-133","25","GLUC","Glucose","7.3","mmol/L","7.3",7.3,"mmol/L",3.9,5.6,3.9,5.6,"HIGH",null,null,"7","WEEK 20","2024-11-05","140"],["GLPX1","LB","GLPX1-102-133","26","ALT","Alanine Aminotransferase","28","U/L","28",28.0,"U/L",10.0,40.0,10.0,40.0,"NORMAL",null,null,"7","WEEK 20","2024-11-06","141"],["GLPX1","LB","GLPX1-102-133","27","CREAT","Creatinine","81","umol/L","81",81.0,"umol/L",62.0,106.0,62.0,106.0,"NORMAL",null,null,"7","WEEK 20","2024-11-06","141"],["GLPX1","LB","GLPX1-102-133","28","HBA1C","Hemoglobin A1C","8.1","%","8.1",8.1,"%",4.0,5.6,4.0,5.6,"HIGH",null,null,"7","WEEK 20","2024-11-08","143"],["GLPX1","LB","GLPX1-102-133","29","CREAT","Creatinine","66","umol/L","66",66.0,"umol/L",62.0,106.0,62.0,106.0,"NORMAL",null,null,"8","WEEK 26","2024-12-17","182"],["GLPX1","LB","GLPX1-102-133","30","GLUC","Glucose","6.6","mmol/L","6.6",6.6,"mmol/L",3.9,5.6,3.9,5.6,"HIGH",null,null,"8","WEEK 26","2024-12-17","182"],["GLPX1","LB","GLPX1-102-133","31","ALT","Alanine Aminotransferase","31","U/L","31",31.0,"U/L",10.0,40.0,10.0,40.0,"NORMAL",null,null,"8","WEEK 26","2024-12-18","183"],["GLPX1","LB","GLPX1-102-133","32","HBA1C","Hemoglobin A1C","7.9","%","7.9",7.9,"%",4.0,5.6,4.0,5.6,"HIGH",null,null,"8","WEEK 26","2024-12-19","184"],["GLPX1","LB","GLPX1-102-145","1","GLUC","Glucose","10.6","mmol/L","10.6",10.6,"mmol/L",3.9,5.6,3.9,5.6,"HIGH",null,"Y","1","SCREENING","2024-05-21","-16"],["GLPX1","LB","GLPX1-102-145","2","CREAT","Creatinine","83","umol/L","83",83.0,"umol/L",62.0,106.0,62.0,106.0,"NORMAL",null,"Y","1","SCREENING","2024-05-22","-15"],["GLPX1","LB","GLPX1-102-145","3","HBA1C","Hemoglobin A1C","7.8","%","7.8",7.8,"%",4.0,5.6,4.0,5.6,"HIGH",null,"Y","1","SCREENING","2024-05-23","-14"],["GLPX1","LB","GLPX1-102-145","4","ALT","Alanine Aminotransferase","27","U/L","27",27.0,"U/L",10.0,40.0,10.0,40.0,"NORMAL",null,"Y","1","SCREENING","2024-05-25","-12"],["GLPX1","LB","GLPX1-102-145","5","ALT","Alanine Aminotransferase","14","U/L","14",14.0,"U/L",10.0,40.0,10.0,40.0,"NORMAL",null,null,"2","BASELINE","2024-06-07","2"],["GLPX1","LB","GLPX1-102-145","6","CREAT","Creatinine","85","umol/L","85",85.0,"umol/L",62.0,106.0,62.0,106.0,"NORMAL",null,null,"2","BASELINE","2024-06-09","4"],["GLPX1","LB","GLPX1-102-145","7","GLUC","Glucose","9.7","mmol/L","9.7",9.7,"mmol/L",3.9,5.6,3.9,5.6,"HIGH",null,null,"2","BASELINE","2024-06-09","4"],["GLPX1","LB","GLPX1-102-145","8","HBA1C","Hemoglobin A1C","7.8","%","7.8",7.8,"%",4.0,5.6,4.0,5.6,"HIGH",null,null,"2","BASELINE","2024-06-09","4"],["GLPX1","LB","GLPX1-102-145","9","GLUC","Glucose","10.4","mmol/L","10.4",10.4,"mmol/L",3.9,5.6,3.9,5.6,"HIGH",null,null,"3","WEEK 4","2024-07-03","28"],["GLPX1","LB","GLPX1-102-145","10","ALT","Alanine Aminotransferase","43","U/L","43",43.0,"U/L",10.0,40.0,10.0,40.0,"HIGH",null,null,"3","WEEK 4","2024-07-05","30"],["GLPX1","LB","GLPX1-102-145","11","CREAT","Creatinine","87","umol/L","87",87.0,"umol/L",62.0,106.0,62.0,106.0,"NORMAL",null,null,"3","WEEK 4","2024-07-07","32"],["GLPX1","LB","GLPX1-102-145","12","HBA1C","Hemoglobin A1C","7.1","%","7.1",7.1,"%",4.0,5.6,4.0,5.6,"HIGH",null,null,"3","WEEK 4","2024-07-07","32"],["GLPX1","LB","GLPX1-102-145","13","ALT","Alanine Aminotransferase","35","U/L","35",35.0,"U/L",10.0,40.0,10.0,40.0,"NORMAL",null,null,"4","WEEK 8","2024-07-31","56"],["GLPX1","LB","GLPX1-102-145","14","CREAT","Creatinine","76","umol/L","76",76.0,"umol/L",62.0,106.0,62.0,106.0,"NORMAL",null,null,"4","WEEK 8","2024-07-31","56"],["GLPX1","LB","GLPX1-102-145","15","GLUC","Glucose","8.9","mmol/L","8.9",8.9,"mmol/L",3.9,5.6,3.9,5.6,"HIGH",null,null,"4","WEEK 8","2024-08-02","58"],["GLPX1","LB","GLPX1-102-145","16","HBA1C","Hemoglobin A1C","7.7","%","7.7",7.7,"%",4.0,5.6,4.0,5.6,"HIGH",null,null,"4","WEEK 8","2024-08-04","60"],["GLPX1","LB","GLPX1-102-145","17","ALT","Alanine Aminotransferase","34","U/L","34",34.0,"U/L",10.0,40.0,10.0,40.0,"NORMAL",null,null,"5","WEEK 12","2024-08-28","84"],["GLPX1","LB","GLPX1-102-145","18","CREAT","Creatinine","86","umol/L","86",86.0,"umol/L",62.0,106.0,62.0,106.0,"NORMAL",null,null,"5","WEEK 12","2024-08-28","84"],["GLPX1","LB","GLPX1-102-145","19","HBA1C","Hemoglobin A1C","6.8","%","6.8",6.8,"%",4.0,5.6,4.0,5.6,"HIGH",null,null,"5","WEEK 12","20